File: Chrysotile/Chryso_3/powderpattern_table_3.csv
H	K	L	2THETA	D-VALUE	MULT	INTENSITY
1	-1	0	7.70	11.4783	2	5.1
1	1	0	7.70	11.4783	2	5.1
0	2	0	9.56	9.2500	2	0.3
2	0	0	12.09	7.3181	2	85.1
2	-2	0	15.44	5.7392	2	8.4
2	2	0	15.44	5.7392	2	8.4
1	-3	0	15.59	5.6829	2	9.2
1	3	0	15.59	5.6829	2	9.2
0	0	1	16.66	5.3213	2	1000.0
1	1	-1	18.06	4.9123	2	1.8
1	-1	-1	18.06	4.9123	2	1.8
1	-1	1	18.69	4.7474	2	1.7
1	1	1	18.69	4.7474	2	1.7
3	1	0	18.81	4.7174	2	2.5
3	-1	0	18.81	4.7174	2	2.5
0	4	0	19.19	4.6250	2	11.7
0	2	-1	19.24	4.6125	2	0.0
0	2	1	19.24	4.6125	2	0.0
2	0	-1	20.06	4.4255	2	36.7
2	0	1	21.20	4.1916	2	31.8
2	2	-1	22.27	3.9922	2	3.1
2	-2	-1	22.27	3.9922	2	3.1
1	3	-1	22.64	3.9279	2	0.0
1	-3	-1	22.64	3.9279	2	0.0
2	4	0	22.74	3.9096	2	1.1
2	-4	0	22.74	3.9096	2	1.1
1	-3	1	23.15	3.8420	2	0.0
1	3	1	23.15	3.8420	2	0.0
3	3	0	23.25	3.8261	2	1.2
3	-3	0	23.25	3.8261	2	1.2
2	2	1	23.30	3.8179	2	2.7
2	-2	1	23.30	3.8179	2	2.7
4	0	0	24.32	3.6590	2	45.0
3	1	-1	24.52	3.6308	2	2.9
3	-1	-1	24.52	3.6308	2	2.9
1	-5	0	24.82	3.5872	2	2.3
1	5	0	24.82	3.5872	2	2.3
0	4	-1	25.52	3.4908	2	0.0
0	4	1	25.52	3.4908	2	0.0
3	1	1	25.92	3.4372	2	2.5
3	-1	1	25.92	3.4372	2	2.5
4	2	0	26.19	3.4025	2	0.8
4	-2	0	26.19	3.4025	2	0.8
2	4	-1	27.90	3.1975	2	2.1
2	-4	-1	27.90	3.1975	2	2.1
3	-3	-1	28.11	3.1745	2	0.1
3	3	-1	28.11	3.1745	2	0.1
2	-4	1	28.74	3.1058	2	2.0
2	4	1	28.74	3.1058	2	2.0
4	0	-1	28.81	3.0987	2	12.9
0	6	0	28.96	3.0833	2	0.1
3	-3	1	29.35	3.0426	2	0.1
3	3	1	29.35	3.0426	2	0.1
1	5	-1	29.84	2.9939	2	0.1
1	-5	-1	29.84	2.9939	2	0.1
1	-5	1	30.24	2.9553	2	0.1
1	5	1	30.24	2.9553	2	0.1
3	-5	0	30.32	2.9481	2	0.9
3	5	0	30.32	2.9481	2	0.9
4	2	-1	30.42	2.9382	2	0.7
4	-2	-1	30.42	2.9382	2	0.7
4	0	1	30.43	2.9378	2	10.9
5	1	0	30.93	2.8913	2	10.9
5	-1	0	30.93	2.8913	2	10.9
4	-4	0	31.17	2.8696	2	7.8
4	4	0	31.17	2.8696	2	7.8
2	-6	0	31.48	2.8414	2	1.0
2	6	0	31.48	2.8414	2	1.0
4	2	1	31.96	2.8000	2	0.6
4	-2	1	31.96	2.8000	2	0.6
0	6	1	33.59	2.6678	2	0.0
0	6	-1	33.59	2.6678	2	0.0
0	0	2	33.68	2.6607	2	182.5
5	-3	0	33.90	2.6444	2	2.7
5	3	0	33.90	2.6444	2	2.7
1	1	-2	34.25	2.6178	2	0.1
1	-1	-2	34.25	2.6178	2	0.1
3	-5	-1	34.26	2.6173	2	0.2
3	5	-1	34.26	2.6173	2	0.2
5	1	-1	34.46	2.6027	2	3.1
5	-1	-1	34.46	2.6027	2	3.1
1	-7	0	34.48	2.6008	2	0.8
1	7	0	34.48	2.6008	2	0.8
4	-4	-1	34.85	2.5743	2	1.3
4	4	-1	34.85	2.5743	2	1.3
1	1	2	34.96	2.5668	2	0.1
1	-1	2	34.96	2.5668	2	0.1
0	2	-2	35.09	2.5570	2	0.0
0	2	2	35.09	2.5570	2	0.0
2	0	-2	35.23	2.5476	2	5.0
3	-5	1	35.31	2.5419	2	0.2
3	5	1	35.31	2.5419	2	0.2
2	-6	-1	35.48	2.5299	2	0.8
2	6	-1	35.48	2.5299	2	0.8
2	6	1	36.16	2.4837	2	0.8
2	-6	1	36.16	2.4837	2	0.8
5	1	1	36.18	2.4825	2	2.7
5	-1	1	36.18	2.4825	2	2.7
4	-4	1	36.22	2.4798	2	1.2
4	4	1	36.22	2.4798	2	1.2
2	2	-2	36.58	2.4562	2	0.8
2	-2	-2	36.58	2.4562	2	0.8
2	0	2	36.59	2.4559	2	4.5
6	0	0	36.85	2.4394	2	4.2
1	3	-2	36.99	2.4304	2	0.8
1	-3	-2	36.99	2.4304	2	0.8
5	3	-1	37.18	2.4183	2	0.1
5	-3	-1	37.18	2.4183	2	0.1
1	3	2	37.64	2.3894	2	0.7
1	-3	2	37.64	2.3894	2	0.7
3	1	-2	37.89	2.3742	2	0.4
3	-1	-2	37.89	2.3742	2	0.4
2	2	2	37.90	2.3737	2	0.7
2	-2	2	37.90	2.3737	2	0.7
6	-2	0	38.15	2.3587	2	0.0
6	2	0	38.15	2.3587	2	0.0
4	-6	0	38.17	2.3578	2	0.6
4	6	0	38.17	2.3578	2	0.6
1	7	-1	38.37	2.3460	2	0.0
1	-7	-1	38.37	2.3460	2	0.0
1	-7	1	38.69	2.3274	2	0.0
1	7	1	38.69	2.3274	2	0.0
3	7	0	38.75	2.3238	2	0.0
3	-7	0	38.75	2.3238	2	0.0
5	-3	1	38.80	2.3209	2	0.1
5	3	1	38.80	2.3209	2	0.1
0	8	0	38.95	2.3125	2	0.0
0	4	-2	39.06	2.3063	2	1.4
0	4	2	39.06	2.3063	2	1.4
5	-5	0	39.24	2.2957	2	0.2
5	5	0	39.24	2.2957	2	0.2
6	0	-1	39.76	2.2670	2	0.6
3	1	2	39.80	2.2646	2	0.4
3	-1	2	39.80	2.2646	2	0.4
3	3	-2	40.42	2.2317	2	0.2
3	-3	-2	40.42	2.2317	2	0.2
2	4	-2	40.42	2.2315	2	0.2
2	-4	-2	40.42	2.2315	2	0.2
4	0	-2	40.78	2.2128	2	9.1
2	8	0	40.93	2.2050	2	2.6
2	-8	0	40.93	2.2050	2	2.6
6	-2	-1	40.99	2.2018	2	0.0
6	2	-1	40.99	2.2018	2	0.0
4	-6	-1	41.31	2.1857	2	0.3
4	6	-1	41.31	2.1857	2	0.3
6	0	1	41.60	2.1711	2	0.4
2	-4	2	41.64	2.1691	2	0.2
2	4	2	41.64	2.1691	2	0.2
6	-4	0	41.87	2.1576	2	0.1
6	4	0	41.87	2.1576	2	0.1
4	-2	-2	41.98	2.1521	2	0.2
4	2	-2	41.98	2.1521	2	0.2
1	5	-2	41.99	2.1514	2	0.4
1	-5	-2	41.99	2.1514	2	0.4
3	7	-1	42.00	2.1511	2	0.1
3	-7	-1	42.00	2.1511	2	0.1
5	-5	-1	42.17	2.1430	2	0.0
5	5	-1	42.17	2.1430	2	0.0
3	-3	2	42.23	2.1400	2	0.2
3	3	2	42.23	2.1400	2	0.2
4	-6	1	42.50	2.1269	2	0.3
4	6	1	42.50	2.1269	2	0.3
1	-5	2	42.59	2.1228	2	0.4
1	5	2	42.59	2.1228	2	0.4
0	8	-1	42.63	2.1209	2	1.4
0	8	1	42.63	2.1209	2	1.4
6	-2	1	42.78	2.1136	2	0.0
6	2	1	42.78	2.1136	2	0.0
3	-7	1	42.89	2.1087	2	0.1
3	7	1	42.89	2.1087	2	0.1
4	0	2	43.16	2.0958	2	7.5
7	-1	0	43.56	2.0776	2	1.3
7	1	0	43.56	2.0776	2	1.3
5	-5	1	43.63	2.0744	2	0.0
5	5	1	43.63	2.0744	2	0.0
2	8	-1	44.19	2.0496	2	1.2
2	-8	-1	44.19	2.0496	2	1.2
4	-2	2	44.32	2.0440	2	0.2
4	2	2	44.32	2.0440	2	0.2
6	-4	-1	44.51	2.0356	2	0.3
6	4	-1	44.51	2.0356	2	0.3
1	9	0	44.51	2.0356	2	0.1
1	-9	0	44.51	2.0356	2	0.1
2	-8	1	44.76	2.0248	2	1.2
2	8	1	44.76	2.0248	2	1.2
5	1	-2	44.98	2.0152	2	3.5
5	-1	-2	44.98	2.0152	2	3.5
0	6	-2	45.00	2.0144	2	0.0
0	6	2	45.00	2.0144	2	0.0
3	5	-2	45.11	2.0099	2	0.2
3	-5	-2	45.11	2.0099	2	0.2
4	4	-2	45.44	1.9961	2	2.3
4	-4	-2	45.44	1.9961	2	2.3
7	3	0	45.82	1.9802	2	0.4
7	-3	0	45.82	1.9802	2	0.4
7	1	-1	45.98	1.9736	2	1.5
7	-1	-1	45.98	1.9736	2	1.5
6	4	1	46.19	1.9653	2	0.2
6	-4	1	46.19	1.9653	2	0.2
2	6	-2	46.22	1.9640	2	0.3
2	-6	-2	46.22	1.9640	2	0.3
5	-7	0	46.28	1.9616	2	0.5
5	7	0	46.28	1.9616	2	0.5
4	8	0	46.45	1.9548	2	0.2
4	-8	0	46.45	1.9548	2	0.2
3	-5	2	46.77	1.9422	2	0.2
3	5	2	46.77	1.9422	2	0.2
5	-3	-2	47.19	1.9259	2	0.9
5	3	-2	47.19	1.9259	2	0.9
2	6	2	47.32	1.9210	2	0.3
2	-6	2	47.32	1.9210	2	0.3
6	6	0	47.53	1.9131	2	0.0
6	-6	0	47.53	1.9131	2	0.0
4	-4	2	47.64	1.9089	2	2.0
4	4	2	47.64	1.9089	2	2.0
1	-9	-1	47.71	1.9063	2	0.0
1	9	-1	47.71	1.9063	2	0.0
5	1	2	47.74	1.9051	2	2.9
5	-1	2	47.74	1.9051	2	2.9
7	1	1	47.90	1.8992	2	1.3
7	-1	1	47.90	1.8992	2	1.3
1	-9	1	47.98	1.8962	2	0.0
1	9	1	47.98	1.8962	2	0.0
3	-9	0	48.03	1.8943	2	0.0
3	9	0	48.03	1.8943	2	0.0
7	-3	-1	48.16	1.8895	2	0.6
7	3	-1	48.16	1.8895	2	0.6
1	7	-2	48.71	1.8693	2	0.2
1	-7	-2	48.71	1.8693	2	0.2
5	7	-1	48.86	1.8638	2	0.0
5	-7	-1	48.86	1.8638	2	0.0
4	-8	-1	49.16	1.8533	2	1.1
4	8	-1	49.16	1.8533	2	1.1
6	0	-2	49.21	1.8514	2	0.9
1	-7	2	49.24	1.8505	2	0.2
1	7	2	49.24	1.8505	2	0.2
0	10	0	49.25	1.8500	2	0.1
8	0	0	49.84	1.8295	2	4.1
5	-3	2	49.86	1.8291	2	0.7
5	3	2	49.86	1.8291	2	0.7
6	6	-1	49.93	1.8265	2	0.0
6	-6	-1	49.93	1.8265	2	0.0
7	3	1	50.01	1.8239	2	0.5
7	-3	1	50.01	1.8239	2	0.5
7	-5	0	50.11	1.8203	2	0.0
7	5	0	50.11	1.8203	2	0.0
5	7	1	50.18	1.8181	2	0.0
5	-7	1	50.18	1.8181	2	0.0
4	-8	1	50.21	1.8171	2	1.0
4	8	1	50.21	1.8171	2	1.0
6	-2	-2	50.26	1.8154	2	0.0
6	2	-2	50.26	1.8154	2	0.0
4	-6	-2	50.78	1.7977	2	0.2
4	6	-2	50.78	1.7977	2	0.2
3	9	-1	50.80	1.7972	2	0.0
3	-9	-1	50.80	1.7972	2	0.0
8	-2	0	50.88	1.7947	2	0.4
8	2	0	50.88	1.7947	2	0.4
2	10	0	50.91	1.7936	2	0.3
5	-5	-2	51.39	1.7779	2	0.1
5	5	-2	51.39	1.7779	2	0.1
6	6	1	51.48	1.7751	2	0.0
6	-6	1	51.48	1.7751	2	0.0
3	7	-2	51.51	1.7743	2	0.0
3	-7	-2	51.51	1.7743	2	0.0
0	0	3	51.52	1.7738	2	32.6
3	-9	1	51.57	1.7722	2	0.0
3	9	1	51.57	1.7722	2	0.0
1	1	-3	51.80	1.7649	2	0.1
1	-1	-3	51.80	1.7649	2	0.1
8	0	-1	51.91	1.7613	2	2.7
7	-5	-1	52.30	1.7491	2	0.0
7	5	-1	52.30	1.7491	2	0.0
6	0	2	52.30	1.7490	2	0.6
0	10	-1	52.36	1.7474	2	0.0
0	10	1	52.36	1.7474	2	0.0
2	0	-3	52.38	1.7468	2	1.8
0	8	-2	52.42	1.7454	2	0.0
0	8	2	52.42	1.7454	2	0.0
0	2	3	52.53	1.7420	2	0.0
0	2	-3	52.53	1.7420	2	0.0
1	-1	3	52.56	1.7412	2	0.1
1	1	3	52.56	1.7412	2	0.1
4	-6	2	52.82	1.7333	2	0.2
4	6	2	52.82	1.7333	2	0.2
8	2	-1	52.92	1.7302	2	0.3
8	-2	-1	52.92	1.7302	2	0.3
3	-7	2	53.02	1.7271	2	0.0
3	7	2	53.02	1.7271	2	0.0
6	4	-2	53.30	1.7188	2	0.0
6	-4	-2	53.30	1.7188	2	0.0
6	-2	2	53.30	1.7186	2	0.0
6	2	2	53.30	1.7186	2	0.0
2	2	-3	53.37	1.7165	2	0.2
2	-2	-3	53.37	1.7165	2	0.2
2	8	-2	53.52	1.7123	2	1.0
2	-8	-2	53.52	1.7123	2	1.0
2	10	-1	53.70	1.7069	2	0.2
1	3	-3	53.80	1.7040	2	0.0
1	-3	-3	53.80	1.7040	2	0.0
2	0	3	53.87	1.7018	2	1.6
8	-4	0	53.89	1.7012	2	0.0
8	4	0	53.89	1.7012	2	0.0
5	5	2	53.90	1.7009	2	0.1
5	-5	2	53.90	1.7009	2	0.1
8	0	1	53.91	1.7006	2	2.3
7	5	1	54.05	1.6967	2	0.0
7	-5	1	54.05	1.6967	2	0.0
2	10	1	54.19	1.6925	2	0.2
3	1	-3	54.23	1.6913	2	0.3
3	-1	-3	54.23	1.6913	2	0.3
7	-1	-2	54.47	1.6845	2	0.6
7	1	-2	54.47	1.6845	2	0.6
2	-8	2	54.50	1.6836	2	0.9
2	8	2	54.50	1.6836	2	0.9
1	-3	3	54.54	1.6826	2	0.0
1	3	3	54.54	1.6826	2	0.0
5	-9	0	54.55	1.6822	2	0.0
5	9	0	54.55	1.6822	2	0.0
6	-8	0	54.69	1.6782	2	0.7
6	8	0	54.69	1.6782	2	0.7
2	2	3	54.85	1.6737	2	0.2
2	-2	3	54.85	1.6737	2	0.2
8	-2	1	54.89	1.6725	2	0.3
8	2	1	54.89	1.6725	2	0.3
1	11	0	54.95	1.6708	2	0.4
0	4	-3	55.48	1.6562	2	0.0
0	4	3	55.48	1.6562	2	0.0
4	10	0	55.67	1.6510	2	0.0
8	4	-1	55.86	1.6460	2	0.0
8	-4	-1	55.86	1.6460	2	0.0
7	-7	0	56.09	1.6398	2	0.2
7	7	0	56.09	1.6398	2	0.2
3	3	-3	56.17	1.6374	2	0.0
3	-3	-3	56.17	1.6374	2	0.0
6	4	2	56.23	1.6360	2	0.0
6	-4	2	56.23	1.6360	2	0.0
2	4	-3	56.30	1.6341	2	0.2
2	-4	-3	56.30	1.6341	2	0.2
4	0	-3	56.33	1.6331	2	1.5
7	-3	-2	56.40	1.6313	2	0.2
7	3	-2	56.40	1.6313	2	0.2
3	-1	3	56.42	1.6309	2	0.2
3	1	3	56.42	1.6309	2	0.2
1	9	-2	56.72	1.6229	2	0.0
1	-9	-2	56.72	1.6229	2	0.0
9	1	0	56.83	1.6200	2	1.2
9	-1	0	56.83	1.6200	2	1.2
5	-9	-1	56.86	1.6193	2	0.1
5	9	-1	56.86	1.6193	2	0.1
6	-8	-1	56.88	1.6189	2	0.1
6	8	-1	56.88	1.6189	2	0.1
1	-9	2	57.20	1.6105	2	0.0
1	9	2	57.20	1.6105	2	0.0
5	7	-2	57.27	1.6085	2	0.2
5	-7	-2	57.27	1.6085	2	0.2
4	-2	-3	57.29	1.6082	2	0.1
4	2	-3	57.29	1.6082	2	0.1
1	5	-3	57.65	1.5989	2	0.0
1	-5	-3	57.65	1.5989	2	0.0
4	8	-2	57.66	1.5988	2	0.1
4	-8	-2	57.66	1.5988	2	0.1
2	4	3	57.72	1.5971	2	0.2
2	-4	3	57.72	1.5971	2	0.2
1	11	-1	57.72	1.5971	2	0.0
8	4	1	57.76	1.5961	2	0.0
8	-4	1	57.76	1.5961	2	0.0
7	1	2	57.83	1.5943	2	0.5
7	-1	2	57.83	1.5943	2	0.5
1	11	1	57.96	1.5911	2	0.0
3	11	0	58.00	1.5900	2	0.4
5	-9	1	58.04	1.5891	2	0.1
5	9	1	58.04	1.5891	2	0.1
4	10	-1	58.07	1.5884	2	0.1
6	6	-2	58.11	1.5873	2	0.0
6	-6	-2	58.11	1.5873	2	0.0
7	-7	-1	58.12	1.5872	2	0.1
7	7	-1	58.12	1.5872	2	0.1
6	-8	1	58.29	1.5828	2	0.1
6	8	1	58.29	1.5828	2	0.1
3	-3	3	58.31	1.5825	2	0.0
3	3	3	58.31	1.5825	2	0.0
1	5	3	58.36	1.5812	2	0.0
1	-5	3	58.36	1.5812	2	0.0
9	1	-1	58.61	1.5749	2	0.6
9	-1	-1	58.61	1.5749	2	0.6
8	-6	0	58.68	1.5734	2	0.2
8	6	0	58.68	1.5734	2	0.2
9	3	0	58.71	1.5725	2	0.3
9	-3	0	58.71	1.5725	2	0.3
4	10	1	59.00	1.5655	2	0.1
4	0	3	59.17	1.5615	2	1.3
3	9	-2	59.25	1.5595	2	0.0
3	-9	-2	59.25	1.5595	2	0.0
4	-8	2	59.53	1.5529	2	0.1
4	8	2	59.53	1.5529	2	0.1
5	1	-3	59.59	1.5514	2	0.6
5	-1	-3	59.59	1.5514	2	0.6
5	-7	2	59.61	1.5508	2	0.1
5	7	2	59.61	1.5508	2	0.1
8	0	-2	59.68	1.5493	2	2.0
7	3	2	59.70	1.5489	2	0.2
7	-3	2	59.70	1.5489	2	0.2
7	-7	1	59.75	1.5477	2	0.1
7	7	1	59.75	1.5477	2	0.1
3	5	-3	59.92	1.5436	2	0.0
3	-5	-3	59.92	1.5436	2	0.0
0	12	0	60.01	1.5417	2	13.6
4	4	-3	60.08	1.5399	2	0.3
4	-4	-3	60.08	1.5399	2	0.3
4	-2	3	60.09	1.5398	2	0.1
4	2	3	60.09	1.5398	2	0.1
7	-5	-2	60.15	1.5384	2	0.0
7	5	-2	60.15	1.5384	2	0.0
0	6	-3	60.18	1.5375	2	0.0
0	6	3	60.18	1.5375	2	0.0
3	11	-1	60.46	1.5313	2	0.2
9	3	-1	60.46	1.5311	2	0.0
9	-3	-1	60.46	1.5311	2	0.0
8	-6	-1	60.54	1.5294	2	0.2
8	6	-1	60.54	1.5294	2	0.2
8	2	-2	60.60	1.5281	2	0.2
8	-2	-2	60.60	1.5281	2	0.2
3	-9	2	60.63	1.5272	2	0.0
3	9	2	60.63	1.5272	2	0.0
9	1	1	60.70	1.5258	2	0.5
9	-1	1	60.70	1.5258	2	0.5
6	-6	2	60.89	1.5213	2	0.0
6	6	2	60.89	1.5213	2	0.0
2	6	-3	60.96	1.5199	2	0.1
2	-6	-3	60.96	1.5199	2	0.1
0	10	-2	61.00	1.5189	2	0.0
0	10	2	61.00	1.5189	2	0.0
3	11	1	61.14	1.5157	2	0.2
5	-3	-3	61.42	1.5095	2	0.0
5	3	-3	61.42	1.5095	2	0.0
2	12	0	61.46	1.5086	2	1.2
3	5	3	61.98	1.4972	2	0.0
3	-5	3	61.98	1.4972	2	0.0
2	10	-2	61.99	1.4969	2	0.2
2	-6	3	62.32	1.4899	2	0.1
2	6	3	62.32	1.4899	2	0.1
8	-6	1	62.36	1.4891	2	0.2
8	6	1	62.36	1.4891	2	0.2
9	-5	0	62.37	1.4888	2	0.0
9	5	0	62.37	1.4888	2	0.0
9	3	1	62.50	1.4859	2	0.0
9	-3	1	62.50	1.4859	2	0.0
0	12	-1	62.75	1.4808	2	14.5
0	12	1	62.75	1.4808	2	14.5
4	4	3	62.81	1.4795	2	0.2
4	-4	3	62.81	1.4795	2	0.2
2	10	2	62.89	1.4777	2	0.2
5	1	3	63.00	1.4753	2	0.5
5	-1	3	63.00	1.4753	2	0.5
6	0	-3	63.01	1.4752	2	0.0
6	10	0	63.07	1.4740	2	0.0
1	7	-3	63.14	1.4724	2	0.0
1	-7	-3	63.14	1.4724	2	0.0
8	-4	-2	63.30	1.4691	2	0.0
8	4	-2	63.30	1.4691	2	0.0
8	0	2	63.31	1.4689	2	1.5
7	5	2	63.32	1.4688	2	0.0
7	-5	2	63.32	1.4688	2	0.0
7	-9	0	63.46	1.4658	2	0.4
7	9	0	63.46	1.4658	2	0.4
10	0	0	63.57	1.4636	2	0.8
1	-7	3	63.81	1.4585	2	0.0
1	7	3	63.81	1.4585	2	0.0
5	11	0	63.83	1.4583	2	0.1
6	-2	-3	63.90	1.4568	2	0.0
6	2	-3	63.90	1.4568	2	0.0
2	12	-1	63.95	1.4559	2	0.8
9	-5	-1	64.06	1.4536	2	0.0
9	5	-1	64.06	1.4536	2	0.0
8	-2	2	64.20	1.4507	2	0.2
8	2	2	64.20	1.4507	2	0.2
2	12	1	64.39	1.4469	2	0.8
10	2	0	64.45	1.4456	2	0.0
10	-2	0	64.45	1.4456	2	0.0
6	8	-2	64.47	1.4453	2	0.3
6	-8	-2	64.47	1.4453	2	0.3
5	9	-2	64.56	1.4434	2	0.0
5	-9	-2	64.56	1.4434	2	0.0
4	6	-3	64.58	1.4432	2	0.1
4	-6	-3	64.58	1.4432	2	0.1
5	-3	3	64.78	1.4392	2	0.0
5	3	3	64.78	1.4392	2	0.0
5	-5	-3	64.99	1.4350	2	0.0
5	5	-3	64.99	1.4350	2	0.0
8	-8	0	65.00	1.4348	2	0.0
8	8	0	65.00	1.4348	2	0.0
6	10	-1	65.07	1.4333	2	0.0
10	0	-1	65.13	1.4323	2	0.2
3	7	-3	65.30	1.4288	2	0.0
3	-7	-3	65.30	1.4288	2	0.0
7	-9	-1	65.35	1.4279	2	0.3
7	9	-1	65.35	1.4279	2	0.3
7	-7	-2	65.52	1.4247	2	0.1
7	7	-2	65.52	1.4247	2	0.1
4	12	0	65.72	1.4207	2	0.4
9	1	-2	65.76	1.4200	2	0.7
9	-1	-2	65.76	1.4200	2	0.7
4	10	-2	65.80	1.4193	2	0.0
1	11	-2	65.81	1.4191	2	0.2
5	11	-1	65.93	1.4167	2	0.5
1	13	0	65.95	1.4164	2	0.1
10	-2	-1	66.00	1.4154	2	0.0
10	2	-1	66.00	1.4154	2	0.0
9	-5	1	66.04	1.4147	2	0.0
9	5	1	66.04	1.4147	2	0.0
1	11	2	66.24	1.4108	2	0.2
6	10	1	66.39	1.4081	2	0.0
0	8	3	66.42	1.4074	2	0.3
0	8	-3	66.42	1.4074	2	0.3
6	-4	-3	66.53	1.4054	2	0.0
6	4	-3	66.53	1.4054	2	0.0
5	-9	2	66.75	1.4013	2	0.0
5	9	2	66.75	1.4013	2	0.0
8	-8	-1	66.76	1.4012	2	0.0
8	8	-1	66.76	1.4012	2	0.0
8	4	2	66.82	1.4000	2	0.0
8	-4	2	66.82	1.4000	2	0.0
7	9	1	66.88	1.3989	2	0.3
7	-9	1	66.88	1.3989	2	0.3
6	0	3	66.97	1.3972	2	0.0
5	11	1	67.02	1.3963	2	0.5
10	-4	0	67.07	1.3954	2	0.0
10	4	0	67.07	1.3954	2	0.0
6	-8	2	67.10	1.3950	2	0.3
6	8	2	67.10	1.3950	2	0.3
2	8	-3	67.16	1.3938	2	0.3
2	-8	-3	67.16	1.3938	2	0.3
4	-6	3	67.20	1.3931	2	0.1
4	6	3	67.20	1.3931	2	0.1
3	7	3	67.27	1.3918	2	0.0
3	-7	3	67.27	1.3918	2	0.0
10	0	1	67.31	1.3911	2	0.2
7	-1	-3	67.45	1.3884	2	0.4
7	1	-3	67.45	1.3884	2	0.4
9	-3	-2	67.50	1.3877	2	0.2
9	3	-2	67.50	1.3877	2	0.2
4	10	2	67.54	1.3869	2	0.0
9	-7	0	67.64	1.3850	2	0.0
9	7	0	67.64	1.3850	2	0.0
8	6	-2	67.68	1.3844	2	0.1
8	-6	-2	67.68	1.3844	2	0.1
6	2	3	67.84	1.3815	2	0.0
6	-2	3	67.84	1.3815	2	0.0
4	12	-1	67.91	1.3803	2	0.7
3	11	-2	68.14	1.3762	2	0.2
10	-2	1	68.17	1.3756	2	0.0
10	2	1	68.17	1.3756	2	0.0
5	-5	3	68.25	1.3742	2	0.0
5	5	3	68.25	1.3742	2	0.0
2	-8	3	68.45	1.3706	2	0.2
2	8	3	68.45	1.3706	2	0.2
1	13	-1	68.45	1.3706	2	0.0
8	-8	1	68.49	1.3700	2	0.0
8	8	1	68.49	1.3700	2	0.0
7	7	2	68.55	1.3689	2	0.1
7	-7	2	68.55	1.3689	2	0.1
10	-4	-1	68.59	1.3682	2	0.2
10	4	-1	68.59	1.3682	2	0.2
1	13	1	68.66	1.3669	2	0.0
3	13	0	68.71	1.3661	2	0.1
4	12	1	68.76	1.3651	2	0.7
7	-3	-3	69.17	1.3582	2	0.2
7	3	-3	69.17	1.3582	2	0.2
9	-7	-1	69.26	1.3565	2	0.0
9	7	-1	69.26	1.3565	2	0.0
3	11	2	69.42	1.3538	2	0.2
9	-1	2	69.64	1.3500	2	0.6
9	1	2	69.64	1.3500	2	0.6
1	9	-3	70.09	1.3426	2	0.0
1	-9	-3	70.09	1.3426	2	0.0
5	7	-3	70.16	1.3414	2	0.0
5	-7	-3	70.16	1.3414	2	0.0
6	-4	3	70.39	1.3375	2	0.0
6	4	3	70.39	1.3375	2	0.0
4	-8	-3	70.60	1.3340	2	0.3
4	8	-3	70.60	1.3340	2	0.3
0	12	-2	70.61	1.3339	2	7.2
0	12	2	70.61	1.3339	2	7.2
10	4	1	70.72	1.3321	2	0.2
10	-4	1	70.72	1.3321	2	0.2
1	9	3	70.72	1.3321	2	0.0
1	-9	3	70.72	1.3321	2	0.0
6	6	-3	70.80	1.3307	2	0.0
6	-6	-3	70.80	1.3307	2	0.0
0	0	4	70.83	1.3303	2	11.6
9	5	-2	70.90	1.3291	2	0.0
9	-5	-2	70.90	1.3291	2	0.0
3	13	-1	70.95	1.3284	2	0.1
1	1	-4	70.95	1.3283	2	0.0
1	-1	-4	70.95	1.3283	2	0.0
11	1	0	71.02	1.3271	2	1.3
11	-1	0	71.02	1.3271	2	1.3
8	-6	2	71.09	1.3261	2	0.1
8	6	2	71.09	1.3261	2	0.1
9	-7	1	71.17	1.3248	2	0.0
9	7	1	71.17	1.3248	2	0.0
2	0	-4	71.33	1.3222	2	0.4
10	6	0	71.33	1.3222	2	0.0
10	-6	0	71.33	1.3222	2	0.0
9	-3	2	71.33	1.3222	2	0.1
9	3	2	71.33	1.3222	2	0.1
0	14	0	71.38	1.3214	2	0.0
2	12	-2	71.53	1.3190	2	0.6
3	13	1	71.58	1.3182	2	0.1
0	2	4	71.67	1.3168	2	0.0
0	2	-4	71.67	1.3168	2	0.0
1	-1	4	71.79	1.3148	2	0.0
1	1	4	71.79	1.3148	2	0.0
10	0	-2	71.82	1.3144	2	0.5
7	1	3	71.92	1.3128	2	0.3
7	-1	3	71.92	1.3128	2	0.3
8	0	-3	72.01	1.3114	2	0.7
7	11	0	72.07	1.3105	2	0.5
3	-9	-3	72.14	1.3093	2	0.0
3	9	-3	72.14	1.3093	2	0.0
2	2	-4	72.17	1.3089	2	0.1
2	-2	-4	72.17	1.3089	2	0.1
6	10	-2	72.18	1.3086	2	0.0
7	-9	-2	72.34	1.3061	2	0.3
7	9	-2	72.34	1.3061	2	0.3
2	12	2	72.37	1.3057	2	0.6
11	1	-1	72.40	1.3052	2	1.6
11	-1	-1	72.40	1.3052	2	1.6
6	12	0	72.53	1.3032	2	0.1
7	5	-3	72.54	1.3031	2	0.0
7	-5	-3	72.54	1.3031	2	0.0
1	3	-4	72.63	1.3017	2	0.1
1	-3	-4	72.63	1.3017	2	0.1
10	2	-2	72.65	1.3014	2	0.0
10	-2	-2	72.65	1.3014	2	0.0
8	10	0	72.69	1.3008	2	0.1
11	3	0	72.70	1.3006	2	0.2
11	-3	0	72.70	1.3006	2	0.2
2	14	0	72.71	1.3004	2	0.1
3	1	-4	72.79	1.2992	2	0.0
3	-1	-4	72.79	1.2992	2	0.0
10	6	-1	72.81	1.2990	2	0.0
10	-6	-1	72.81	1.2990	2	0.0
8	-2	-3	72.84	1.2984	2	0.1
8	2	-3	72.84	1.2984	2	0.1
2	0	4	73.01	1.2959	2	0.4
5	11	-2	73.11	1.2944	2	0.1
4	-8	3	73.12	1.2941	2	0.3
4	8	3	73.12	1.2941	2	0.3
5	-7	3	73.31	1.2913	2	0.0
5	7	3	73.31	1.2913	2	0.0
1	-3	4	73.46	1.2890	2	0.1
1	3	4	73.46	1.2890	2	0.1
8	8	-2	73.58	1.2872	2	0.0
8	-8	-2	73.58	1.2872	2	0.0
7	3	3	73.59	1.2871	2	0.1
7	-3	3	73.59	1.2871	2	0.1
2	-2	4	73.84	1.2834	2	0.1
2	2	4	73.84	1.2834	2	0.1
7	11	-1	73.85	1.2832	2	0.3
0	14	1	73.90	1.2825	2	0.0
0	14	-1	73.90	1.2825	2	0.0
3	9	3	74.02	1.2807	2	0.0
3	-9	3	74.02	1.2807	2	0.0
0	10	3	74.04	1.2803	2	0.0
0	10	-3	74.04	1.2803	2	0.0
11	-3	-1	74.06	1.2800	2	0.3
11	3	-1	74.06	1.2800	2	0.3
5	13	0	74.07	1.2798	2	0.2
0	4	4	74.17	1.2785	2	0.1
0	4	-4	74.17	1.2785	2	0.1
8	10	-1	74.36	1.2756	2	0.1
9	9	0	74.38	1.2754	2	0.0
9	-9	0	74.38	1.2754	2	0.0
6	12	-1	74.42	1.2748	2	0.0
3	3	-4	74.45	1.2744	2	0.0
3	-3	-4	74.45	1.2744	2	0.0
4	0	-4	74.49	1.2738	2	1.0
6	-6	3	74.57	1.2726	2	0.0
6	6	3	74.57	1.2726	2	0.0
2	4	-4	74.66	1.2713	2	0.0
2	-4	-4	74.66	1.2713	2	0.0
9	-5	2	74.66	1.2712	2	0.0
9	5	2	74.66	1.2712	2	0.0
6	10	2	74.68	1.2709	2	0.0
11	1	1	74.69	1.2708	2	1.4
11	-1	1	74.69	1.2708	2	1.4
2	10	-3	74.74	1.2701	2	0.1
10	-6	1	74.89	1.2680	2	0.0
10	6	1	74.89	1.2680	2	0.0
2	14	-1	75.01	1.2662	2	0.1
4	12	-2	75.10	1.2649	2	0.2
10	-4	-2	75.14	1.2644	2	0.0
10	4	-2	75.14	1.2644	2	0.0
5	11	2	75.18	1.2637	2	0.1
7	-9	2	75.25	1.2627	2	0.2
7	9	2	75.25	1.2627	2	0.2
3	1	4	75.28	1.2623	2	0.0
3	-1	4	75.28	1.2623	2	0.0
7	11	1	75.30	1.2620	2	0.3
4	-2	-4	75.31	1.2619	2	0.0
4	2	-4	75.31	1.2619	2	0.0
8	4	-3	75.32	1.2617	2	0.0
8	-4	-3	75.32	1.2617	2	0.0
2	14	1	75.42	1.2603	2	0.1
6	12	1	75.66	1.2570	2	0.0
9	7	-2	75.89	1.2537	2	0.0
9	-7	-2	75.89	1.2537	2	0.0
1	13	-2	75.93	1.2531	2	0.0
1	5	-4	75.94	1.2530	2	0.0
1	-5	-4	75.94	1.2530	2	0.0
9	9	-1	75.94	1.2530	2	0.0
9	-9	-1	75.94	1.2530	2	0.0
10	0	2	75.97	1.2526	2	0.4
2	10	3	75.98	1.2525	2	0.1
11	5	0	76.01	1.2521	2	0.0
11	-5	0	76.01	1.2521	2	0.0
8	10	1	76.01	1.2520	2	0.1
5	13	-1	76.05	1.2515	2	0.2
2	-4	4	76.31	1.2479	2	0.0
2	4	4	76.31	1.2479	2	0.0
11	-3	1	76.33	1.2475	2	0.3
11	3	1	76.33	1.2475	2	0.3
1	13	2	76.34	1.2474	2	0.0
6	-8	-3	76.61	1.2437	2	0.0
6	8	-3	76.61	1.2437	2	0.0
4	14	0	76.67	1.2429	2	0.1
4	12	2	76.74	1.2419	2	0.2
1	5	4	76.76	1.2417	2	0.0
1	-5	4	76.76	1.2417	2	0.0
10	2	2	76.79	1.2412	2	0.0
10	-2	2	76.79	1.2412	2	0.0
5	-9	-3	76.80	1.2411	2	0.1
5	9	-3	76.80	1.2411	2	0.1
7	5	3	76.88	1.2400	2	0.0
7	-5	3	76.88	1.2400	2	0.0
8	-8	2	76.89	1.2399	2	0.0
8	8	2	76.89	1.2399	2	0.0
3	-3	4	76.92	1.2395	2	0.0
3	3	4	76.92	1.2395	2	0.0
8	0	3	76.98	1.2387	2	0.6
5	13	1	77.07	1.2374	2	0.2
10	-8	0	77.12	1.2367	2	0.4
10	8	0	77.12	1.2367	2	0.4
5	1	-4	77.23	1.2353	2	0.5
5	-1	-4	77.23	1.2353	2	0.5
11	-5	-1	77.35	1.2336	2	0.0
11	5	-1	77.35	1.2336	2	0.0
7	7	-3	77.48	1.2319	2	0.0
7	-7	-3	77.48	1.2319	2	0.0
9	-1	-3	77.51	1.2315	2	0.2
9	1	-3	77.51	1.2315	2	0.2
1	15	0	77.70	1.2290	2	0.0
3	5	-4	77.73	1.2286	2	0.0
3	-5	-4	77.73	1.2286	2	0.0
4	4	-4	77.77	1.2281	2	0.3
4	-4	-4	77.77	1.2281	2	0.3
4	0	4	77.77	1.2280	2	0.9
9	-9	1	77.78	1.2279	2	0.0
9	9	1	77.78	1.2279	2	0.0
8	2	3	77.79	1.2277	2	0.1
8	-2	3	77.79	1.2277	2	0.1
4	10	-3	78.05	1.2243	2	0.0
3	13	-2	78.13	1.2233	2	0.1
0	6	-4	78.27	1.2215	2	0.0
0	6	4	78.27	1.2215	2	0.0
1	11	-3	78.36	1.2202	2	0.0
12	0	0	78.40	1.2197	2	0.3
10	8	-1	78.56	1.2176	2	0.1
10	-8	-1	78.56	1.2176	2	0.1
4	-2	4	78.59	1.2173	2	0.0
4	2	4	78.59	1.2173	2	0.0
11	-1	-2	78.72	1.2155	2	0.9
11	1	-2	78.72	1.2155	2	0.9
4	14	-1	78.72	1.2155	2	0.0
2	6	-4	78.75	1.2152	2	0.0
2	-6	-4	78.75	1.2152	2	0.0
5	-3	-4	78.86	1.2138	2	0.1
5	3	-4	78.86	1.2138	2	0.1
1	11	3	78.97	1.2123	2	0.0
9	-3	-3	79.13	1.2103	2	0.0
9	3	-3	79.13	1.2103	2	0.0
12	-2	0	79.21	1.2092	2	0.0
12	2	0	79.21	1.2092	2	0.0
10	6	-2	79.22	1.2092	2	0.0
10	-6	-2	79.22	1.2092	2	0.0
10	4	2	79.23	1.2090	2	0.0
10	-4	2	79.23	1.2090	2	0.0
3	13	2	79.35	1.2075	2	0.1
8	6	-3	79.40	1.2068	2	0.1
8	-6	-3	79.40	1.2068	2	0.1
4	14	1	79.54	1.2051	2	0.0
9	-7	2	79.56	1.2048	2	0.0
9	7	2	79.56	1.2048	2	0.0
11	5	1	79.59	1.2044	2	0.0
11	-5	1	79.59	1.2044	2	0.0
12	0	-1	79.63	1.2039	2	0.2
5	9	3	79.86	1.2011	2	0.0
5	-9	3	79.86	1.2011	2	0.0
1	15	-1	80.05	1.1987	2	0.0
3	-5	4	80.17	1.1972	2	0.0
3	5	4	80.17	1.1972	2	0.0
6	0	-4	80.19	1.1970	2	0.0
8	-4	3	80.23	1.1965	2	0.0
8	4	3	80.23	1.1965	2	0.0
1	15	1	80.25	1.1962	2	0.0
6	-8	3	80.28	1.1959	2	0.0
6	8	3	80.28	1.1959	2	0.0
3	15	0	80.29	1.1957	2	0.0
11	3	-2	80.34	1.1951	2	0.1
11	-3	-2	80.34	1.1951	2	0.1
3	11	-3	80.34	1.1950	2	0.0
2	-6	4	80.37	1.1947	2	0.0
2	6	4	80.37	1.1947	2	0.0
12	2	-1	80.44	1.1938	2	0.0
12	-2	-1	80.44	1.1938	2	0.0
4	10	3	80.49	1.1933	2	0.0
7	11	-2	80.54	1.1926	2	0.3
10	8	1	80.59	1.1920	2	0.1
10	-8	1	80.59	1.1920	2	0.1
1	7	-4	80.81	1.1893	2	0.0
1	-7	-4	80.81	1.1893	2	0.0
11	7	0	80.88	1.1884	2	0.2
11	-7	0	80.88	1.1884	2	0.2
8	10	-2	80.93	1.1878	2	0.1
6	-2	-4	80.99	1.1871	2	0.0
6	2	-4	80.99	1.1871	2	0.0
4	-4	4	81.01	1.1868	2	0.3
4	4	4	81.01	1.1868	2	0.3
6	12	-2	81.19	1.1847	2	0.1
0	14	2	81.29	1.1835	2	0.0
0	14	-2	81.29	1.1835	2	0.0
5	1	4	81.29	1.1835	2	0.4
5	-1	4	81.29	1.1835	2	0.4
1	-7	4	81.62	1.1795	2	0.0
1	7	4	81.62	1.1795	2	0.0
12	-4	0	81.64	1.1794	2	0.1
12	4	0	81.64	1.1794	2	0.1
8	12	0	81.67	1.1789	2	0.3
7	-7	3	81.74	1.1781	2	0.0
7	7	3	81.74	1.1781	2	0.0
4	-6	-4	81.81	1.1773	2	0.0
4	6	-4	81.81	1.1773	2	0.0
7	13	0	81.88	1.1764	2	0.2
12	0	1	82.06	1.1744	2	0.2
5	-5	-4	82.09	1.1740	2	0.0
5	5	-4	82.09	1.1740	2	0.0
3	11	3	82.16	1.1732	2	0.0
2	14	-2	82.17	1.1730	2	0.0
11	-7	-1	82.20	1.1726	2	0.1
11	7	-1	82.20	1.1726	2	0.1
9	-5	-3	82.36	1.1708	2	0.0
9	5	-3	82.36	1.1708	2	0.0
9	9	-2	82.37	1.1707	2	0.0
9	-9	-2	82.37	1.1707	2	0.0
3	15	-1	82.42	1.1701	2	0.0
9	11	0	82.51	1.1691	2	0.1
3	7	-4	82.58	1.1683	2	0.0
3	-7	-4	82.58	1.1683	2	0.0
12	4	-1	82.86	1.1651	2	0.2
12	-4	-1	82.86	1.1651	2	0.2
12	2	1	82.86	1.1650	2	0.0
12	-2	1	82.86	1.1650	2	0.0
5	13	-2	82.88	1.1648	2	0.1
5	-3	4	82.90	1.1646	2	0.1
5	3	4	82.90	1.1646	2	0.1
9	1	3	82.97	1.1637	2	0.2
9	-1	3	82.97	1.1637	2	0.2
2	14	2	82.98	1.1637	2	0.0
0	12	-3	82.98	1.1636	2	5.0
0	12	3	82.98	1.1636	2	5.0
3	15	1	83.02	1.1632	2	0.0
10	0	-3	83.13	1.1619	2	0.1
6	14	0	83.13	1.1619	2	0.0
11	-1	2	83.17	1.1615	2	0.7
11	1	2	83.17	1.1615	2	0.7
10	-6	2	83.26	1.1605	2	0.0
10	6	2	83.26	1.1605	2	0.0
8	12	-1	83.29	1.1600	2	0.4
7	11	2	83.36	1.1593	2	0.3
6	-4	-4	83.40	1.1588	2	0.0
6	4	-4	83.40	1.1588	2	0.0
11	5	-2	83.56	1.1571	2	0.0
11	-5	-2	83.56	1.1571	2	0.0
7	13	-1	83.60	1.1566	2	0.2
6	12	2	83.61	1.1565	2	0.1
0	16	0	83.63	1.1562	2	0.3
2	12	-3	83.66	1.1559	2	0.3
6	10	-3	83.88	1.1534	2	0.0
0	8	-4	83.91	1.1531	2	0.0
0	8	4	83.91	1.1531	2	0.0
10	-2	-3	83.93	1.1529	2	0.0
10	2	-3	83.93	1.1529	2	0.0
7	-9	-3	83.94	1.1528	2	0.1
7	9	-3	83.94	1.1528	2	0.1
9	11	-1	84.03	1.1518	2	0.2
8	10	2	84.15	1.1504	2	0.1
7	1	-4	84.16	1.1503	2	0.1
7	-1	-4	84.16	1.1503	2	0.1
8	-6	3	84.24	1.1494	2	0.1
8	6	3	84.24	1.1494	2	0.1
2	8	-4	84.38	1.1478	2	0.2
2	-8	-4	84.38	1.1478	2	0.2
10	10	0	84.38	1.1478	2	0.0
11	-7	1	84.41	1.1475	2	0.1
11	7	1	84.41	1.1475	2	0.1
9	3	3	84.58	1.1457	2	0.0
9	-3	3	84.58	1.1457	2	0.0
11	3	2	84.77	1.1436	2	0.1
11	-3	2	84.77	1.1436	2	0.1
10	8	-2	84.85	1.1427	2	0.3
10	-8	-2	84.85	1.1427	2	0.3
2	12	3	84.87	1.1425	2	0.3
5	11	-3	84.87	1.1425	2	0.2
5	13	2	84.89	1.1423	2	0.1
8	12	1	84.90	1.1422	2	0.4
2	16	0	84.91	1.1421	2	0.0
6	14	-1	84.95	1.1416	2	0.0
3	-7	4	84.99	1.1412	2	0.0
3	7	4	84.99	1.1412	2	0.0
7	13	1	85.01	1.1410	2	0.1
6	0	4	85.02	1.1409	2	0.0
4	-6	4	85.02	1.1408	2	0.0
4	6	4	85.02	1.1408	2	0.0
8	8	-3	85.03	1.1408	2	0.0
8	-8	-3	85.03	1.1408	2	0.0
12	4	1	85.26	1.1382	2	0.1
12	-4	1	85.26	1.1382	2	0.1
5	15	0	85.42	1.1366	2	0.0
4	14	-2	85.61	1.1345	2	0.1
12	6	0	85.64	1.1342	2	0.0
12	-6	0	85.64	1.1342	2	0.0
12	0	-2	85.70	1.1335	2	0.2
7	-3	-4	85.75	1.1330	2	0.0
7	3	-4	85.75	1.1330	2	0.0
10	10	-1	85.80	1.1325	2	0.0
6	2	4	85.81	1.1323	2	0.0
6	-2	4	85.81	1.1323	2	0.0
9	11	1	85.83	1.1322	2	0.2
9	9	2	85.98	1.1305	2	0.0
9	-9	2	85.98	1.1305	2	0.0
2	-8	4	85.98	1.1305	2	0.2
2	8	4	85.98	1.1305	2	0.2
0	16	1	86.04	1.1299	2	0.1
0	16	-1	86.04	1.1299	2	0.1
5	5	4	86.10	1.1293	2	0.0
5	-5	4	86.10	1.1293	2	0.0
6	14	1	86.15	1.1288	2	0.0
10	4	-3	86.33	1.1269	2	0.1
10	-4	-3	86.33	1.1269	2	0.1
12	-2	-2	86.50	1.1251	2	0.0
12	2	-2	86.50	1.1251	2	0.0
13	1	0	86.63	1.1238	2	0.0
13	-1	0	86.63	1.1238	2	0.0
12	6	-1	86.85	1.1214	2	0.0
12	-6	-1	86.85	1.1214	2	0.0
5	-7	-4	86.88	1.1211	2	0.0
5	7	-4	86.88	1.1211	2	0.0
4	12	-3	86.89	1.1211	2	0.3
2	16	-1	87.12	1.1187	2	0.0
9	-7	-3	87.15	1.1183	2	0.0
9	7	-3	87.15	1.1183	2	0.0
4	14	2	87.21	1.1178	2	0.0
1	15	-2	87.21	1.1177	2	0.0
1	9	-4	87.22	1.1177	2	0.0
1	-9	-4	87.22	1.1177	2	0.0
11	-9	0	87.29	1.1170	2	0.4
11	9	0	87.29	1.1170	2	0.4
5	15	-1	87.33	1.1166	2	0.0
6	-6	-4	87.40	1.1159	2	0.0
6	6	-4	87.40	1.1159	2	0.0
4	8	-4	87.41	1.1157	2	0.1
4	-8	-4	87.41	1.1157	2	0.1
6	10	3	87.49	1.1149	2	0.0
2	16	1	87.52	1.1146	2	0.0
1	15	2	87.61	1.1137	2	0.0
13	-1	-1	87.74	1.1124	2	0.0
13	1	-1	87.74	1.1124	2	0.0
9	-5	3	87.77	1.1121	2	0.0
9	5	3	87.77	1.1121	2	0.0
10	10	1	87.79	1.1118	2	0.0
5	11	3	87.87	1.1111	2	0.2
11	-5	2	87.96	1.1102	2	0.0
11	5	2	87.96	1.1102	2	0.0
1	13	-3	87.99	1.1098	2	0.0
1	-9	4	88.02	1.1096	2	0.0
1	9	4	88.02	1.1096	2	0.0
7	9	3	88.14	1.1084	2	0.1
7	-9	3	88.14	1.1084	2	0.1
6	4	4	88.21	1.1077	2	0.0
6	-4	4	88.21	1.1077	2	0.0
13	3	0	88.22	1.1075	2	0.0
13	-3	0	88.22	1.1075	2	0.0
5	15	1	88.33	1.1065	2	0.0
8	0	-4	88.34	1.1064	2	0.4
11	7	-2	88.35	1.1063	2	0.1
11	-7	-2	88.35	1.1063	2	0.1
1	13	3	88.59	1.1039	2	0.0
11	-9	-1	88.60	1.1038	2	0.3
11	9	-1	88.60	1.1038	2	0.3
4	16	0	88.73	1.1025	2	0.0
10	8	2	88.84	1.1014	2	0.2
10	-8	2	88.84	1.1014	2	0.2
12	-4	-2	88.89	1.1009	2	0.1
12	4	-2	88.89	1.1009	2	0.1
7	-5	-4	88.94	1.1004	2	0.0
7	5	-4	88.94	1.1004	2	0.0
3	9	-4	88.97	1.1002	2	0.0
3	-9	-4	88.97	1.1002	2	0.0
10	0	3	89.13	1.0986	2	0.1
8	-2	-4	89.13	1.0986	2	0.1
8	2	-4	89.13	1.0986	2	0.1
12	6	1	89.25	1.0974	2	0.0
12	-6	1	89.25	1.0974	2	0.0
4	12	3	89.29	1.0971	2	0.3
13	3	-1	89.33	1.0967	2	0.0
13	-3	-1	89.33	1.0967	2	0.0
3	15	-2	89.36	1.0964	2	0.0
11	-1	-3	89.72	1.0929	2	0.8
11	1	-3	89.72	1.0929	2	0.8
8	12	-2	89.73	1.0928	2	0.3
7	-1	4	89.75	1.0926	2	0.1
7	1	4	89.75	1.0926	2	0.1
8	8	3	89.82	1.0919	2	0.0
8	-8	3	89.82	1.0919	2	0.0
10	2	3	89.93	1.0909	2	0.0
10	-2	3	89.93	1.0909	2	0.0
3	13	-3	89.94	1.0908	2	0.0
7	13	-2	90.13	1.0890	2	0.1
10	6	-3	90.31	1.0873	2	0.0
10	-6	-3	90.31	1.0873	2	0.0
13	-1	1	90.33	1.0871	2	0.0
13	1	1	90.33	1.0871	2	0.0
9	11	-2	90.36	1.0869	2	0.1
12	0	2	90.50	1.0855	2	0.2
1	17	0	90.53	1.0852	2	0.0
3	15	2	90.55	1.0850	2	0.0
4	-8	4	90.60	1.0845	2	0.1
4	8	4	90.60	1.0845	2	0.1
4	16	-1	90.74	1.0833	2	0.0
11	-9	1	90.79	1.0828	2	0.3
11	9	1	90.79	1.0828	2	0.3
5	-7	4	90.88	1.0820	2	0.0
5	7	4	90.88	1.0820	2	0.0
0	10	-4	91.08	1.0801	2	0.0
0	10	4	91.08	1.0801	2	0.0
12	-8	0	91.22	1.0788	2	0.2
12	8	0	91.22	1.0788	2	0.2
12	2	2	91.29	1.0781	2	0.0
12	-2	2	91.29	1.0781	2	0.0
11	-3	-3	91.31	1.0779	2	0.2
11	3	-3	91.31	1.0779	2	0.2
7	-3	4	91.35	1.0776	2	0.0
7	3	4	91.35	1.0776	2	0.0
3	-9	4	91.36	1.0775	2	0.0
3	9	4	91.36	1.0775	2	0.0
13	-5	0	91.40	1.0771	2	0.0
13	5	0	91.40	1.0771	2	0.0
8	4	-4	91.52	1.0760	2	0.0
8	-4	-4	91.52	1.0760	2	0.0
4	16	1	91.53	1.0759	2	0.0
2	10	-4	91.56	1.0757	2	0.0
6	14	-2	91.57	1.0756	2	0.0
3	13	3	91.74	1.0741	2	0.0
7	11	-3	91.91	1.0725	2	0.2
13	-3	1	91.92	1.0724	2	0.0
13	3	1	91.92	1.0724	2	0.0
10	10	-2	92.02	1.0715	2	0.0
8	14	0	92.05	1.0712	2	0.0
9	13	0	92.08	1.0709	2	0.1
6	-6	4	92.19	1.0700	2	0.0
6	6	4	92.19	1.0700	2	0.0
8	10	-3	92.20	1.0699	2	0.0
10	-4	3	92.32	1.0688	2	0.1
10	4	3	92.32	1.0688	2	0.1
12	-8	-1	92.43	1.0679	2	0.1
12	8	-1	92.43	1.0679	2	0.1
13	5	-1	92.51	1.0671	2	0.0
13	-5	-1	92.51	1.0671	2	0.0
9	7	3	92.54	1.0668	2	0.0
9	-7	3	92.54	1.0668	2	0.0
6	12	-3	92.65	1.0658	2	0.0
11	-7	2	92.74	1.0651	2	0.1
11	7	2	92.74	1.0651	2	0.1
0	0	5	92.83	1.0643	2	3.7
1	17	-1	92.83	1.0642	2	0.0
1	1	-5	92.85	1.0641	2	0.0
1	-1	-5	92.85	1.0641	2	0.0
12	-6	-2	92.87	1.0639	2	0.0
12	6	-2	92.87	1.0639	2	0.0
8	12	2	92.92	1.0635	2	0.2
7	13	2	92.93	1.0634	2	0.1
6	8	-4	92.97	1.0630	2	0.1
6	-8	-4	92.97	1.0630	2	0.1
1	17	1	93.03	1.0625	2	0.0
7	15	0	93.05	1.0623	2	0.1
3	17	0	93.07	1.0621	2	0.0
2	0	-5	93.10	1.0618	2	0.2
10	12	0	93.15	1.0615	2	0.0
2	10	4	93.15	1.0614	2	0.0
5	9	-4	93.26	1.0605	2	0.0
5	-9	-4	93.26	1.0605	2	0.0
0	16	-2	93.26	1.0604	2	0.2
0	16	2	93.26	1.0604	2	0.2
0	14	-3	93.35	1.0597	2	0.0
0	14	3	93.35	1.0597	2	0.0
9	-9	-3	93.53	1.0582	2	0.0
9	9	-3	93.53	1.0582	2	0.0
9	1	-4	93.54	1.0580	2	0.2
9	-1	-4	93.54	1.0580	2	0.2
9	13	-1	93.59	1.0576	2	0.1
0	2	-5	93.63	1.0573	2	0.0
0	2	5	93.63	1.0573	2	0.0
13	-1	-2	93.66	1.0570	2	0.0
13	1	-2	93.66	1.0570	2	0.0
8	14	-1	93.66	1.0570	2	0.0
12	-4	2	93.68	1.0568	2	0.1
12	4	2	93.68	1.0568	2	0.1
7	7	-4	93.72	1.0565	2	0.0
7	-7	-4	93.72	1.0565	2	0.0
1	-1	5	93.85	1.0554	2	0.0
1	1	5	93.85	1.0554	2	0.0
2	2	-5	93.90	1.0549	2	0.0
2	-2	-5	93.90	1.0549	2	0.0
9	11	2	93.95	1.0545	2	0.0
6	14	2	93.97	1.0543	2	0.0
2	14	-3	94.03	1.0539	2	0.0
5	15	-2	94.05	1.0537	2	0.0
2	16	-2	94.14	1.0529	2	0.0
3	-1	-5	94.40	1.0507	2	0.0
3	1	-5	94.40	1.0507	2	0.0
5	13	-3	94.43	1.0504	2	0.1
1	3	-5	94.44	1.0503	2	0.0
1	-3	-5	94.44	1.0503	2	0.0
11	-5	-3	94.50	1.0498	2	0.0
11	5	-3	94.50	1.0498	2	0.0
7	-5	4	94.53	1.0495	2	0.0
7	5	4	94.53	1.0495	2	0.0
10	12	-1	94.56	1.0493	2	0.0
4	10	-4	94.58	1.0492	2	0.0
11	-9	-2	94.72	1.0480	2	0.4
11	9	-2	94.72	1.0480	2	0.4
8	0	4	94.73	1.0479	2	0.4
7	15	-1	94.76	1.0476	2	0.0
12	-8	1	94.82	1.0471	2	0.1
12	8	1	94.82	1.0471	2	0.1
2	16	2	94.94	1.0461	2	0.0
14	0	0	95.02	1.0454	2	1.0
6	16	0	95.09	1.0448	2	0.0
2	0	5	95.10	1.0447	2	0.2
13	5	1	95.11	1.0447	2	0.0
13	-5	1	95.11	1.0447	2	0.0
9	-3	-4	95.14	1.0444	2	0.1
9	3	-4	95.14	1.0444	2	0.1
3	17	-1	95.18	1.0441	2	0.0
1	11	-4	95.19	1.0441	2	0.0
2	14	3	95.23	1.0437	2	0.0
11	11	0	95.25	1.0435	2	1.0
13	3	-2	95.25	1.0435	2	0.0
13	-3	-2	95.25	1.0435	2	0.0
8	14	1	95.26	1.0434	2	0.0
9	13	1	95.39	1.0423	2	0.1
1	-3	5	95.44	1.0419	2	0.0
1	3	5	95.44	1.0419	2	0.0
8	-6	-4	95.51	1.0414	2	0.0
8	6	-4	95.51	1.0414	2	0.0
8	2	4	95.53	1.0412	2	0.0
8	-2	4	95.53	1.0412	2	0.0
3	17	1	95.78	1.0391	2	0.0
14	2	0	95.82	1.0388	2	0.0
14	-2	0	95.82	1.0388	2	0.0
10	-8	-3	95.89	1.0382	2	0.1
10	8	-3	95.89	1.0382	2	0.1
2	2	5	95.90	1.0381	2	0.0
2	-2	5	95.90	1.0381	2	0.0
4	0	-5	95.93	1.0379	2	0.3
1	11	4	95.99	1.0374	2	0.0
3	3	-5	96.00	1.0374	2	0.0
3	-3	-5	96.00	1.0374	2	0.0
10	10	2	96.02	1.0372	2	0.0
0	4	-5	96.02	1.0372	2	0.0
0	4	5	96.02	1.0372	2	0.0
14	0	-1	96.03	1.0371	2	0.7
5	15	2	96.05	1.0369	2	0.0
7	11	3	96.11	1.0365	2	0.1
7	15	1	96.17	1.0360	2	0.0
13	-7	0	96.19	1.0358	2	0.0
13	7	0	96.19	1.0358	2	0.0
6	12	3	96.25	1.0353	2	0.0
2	4	-5	96.30	1.0349	2	0.0
2	-4	-5	96.30	1.0349	2	0.0
10	-6	3	96.31	1.0348	2	0.0
10	6	3	96.31	1.0348	2	0.0
11	1	3	96.32	1.0348	2	0.7
11	-1	3	96.32	1.0348	2	0.7
12	0	-3	96.55	1.0329	2	0.1
10	12	1	96.56	1.0328	2	0.0
11	11	-1	96.57	1.0327	2	0.7
4	-2	-5	96.73	1.0314	2	0.0
4	2	-5	96.73	1.0314	2	0.0
14	2	-1	96.83	1.0306	2	0.0
14	-2	-1	96.83	1.0306	2	0.0
6	16	-1	96.91	1.0300	2	0.0
3	11	-4	96.94	1.0298	2	0.0
8	10	3	97.00	1.0293	2	0.0
0	18	0	97.19	1.0278	2	0.0
4	14	-3	97.26	1.0273	2	0.0
5	-9	4	97.26	1.0272	2	0.0
5	9	4	97.26	1.0272	2	0.0
13	-7	-1	97.31	1.0269	2	0.0
13	7	-1	97.31	1.0269	2	0.0
12	2	-3	97.35	1.0265	2	0.0
12	-2	-3	97.35	1.0265	2	0.0
3	-1	5	97.41	1.0261	2	0.0
3	1	5	97.41	1.0261	2	0.0
5	13	3	97.44	1.0258	2	0.1
4	16	-2	97.57	1.0248	2	0.0
1	5	-5	97.64	1.0242	2	0.0
1	-5	-5	97.64	1.0242	2	0.0
12	-6	2	97.68	1.0239	2	0.0
12	6	2	97.68	1.0239	2	0.0
6	-8	4	97.78	1.0232	2	0.1
6	8	4	97.78	1.0232	2	0.1
4	10	4	97.79	1.0231	2	0.0
11	3	3	97.92	1.0220	2	0.1
11	-3	3	97.92	1.0220	2	0.1
8	4	4	97.93	1.0220	2	0.0
8	-4	4	97.93	1.0220	2	0.0
6	16	1	98.12	1.0205	2	0.0
5	17	0	98.18	1.0200	2	0.0
14	4	0	98.23	1.0197	2	0.0
14	-4	0	98.23	1.0197	2	0.0
2	-4	5	98.31	1.0191	2	0.0
2	4	5	98.31	1.0191	2	0.0
9	5	-4	98.35	1.0188	2	0.0
9	-5	-4	98.35	1.0188	2	0.0
12	10	0	98.41	1.0183	2	0.0
13	-5	-2	98.46	1.0179	2	0.0
13	5	-2	98.46	1.0179	2	0.0
12	-8	-2	98.47	1.0178	2	0.1
12	8	-2	98.47	1.0178	2	0.1
2	18	0	98.48	1.0178	2	0.0
5	1	-5	98.51	1.0175	2	0.1
5	-1	-5	98.51	1.0175	2	0.1
1	-5	5	98.65	1.0164	2	0.0
1	5	5	98.65	1.0164	2	0.0
11	11	1	98.78	1.0154	2	0.7
14	0	1	98.85	1.0149	2	0.6
13	-1	2	98.88	1.0147	2	0.0
13	1	2	98.88	1.0147	2	0.0
9	-9	3	98.95	1.0142	2	0.0
9	9	3	98.95	1.0142	2	0.0
3	-3	5	99.01	1.0137	2	0.0
3	3	5	99.01	1.0137	2	0.0
10	0	-4	99.02	1.0136	2	0.2
11	-9	2	99.14	1.0127	2	0.3
11	9	2	99.14	1.0127	2	0.3
4	-4	-5	99.14	1.0127	2	0.1
4	4	-5	99.14	1.0127	2	0.1
1	15	-3	99.18	1.0125	2	0.0
4	16	2	99.19	1.0124	2	0.0
3	5	-5	99.21	1.0122	2	0.0
3	-5	-5	99.21	1.0122	2	0.0
14	-4	-1	99.25	1.0120	2	0.0
14	4	-1	99.25	1.0120	2	0.0
11	-7	-3	99.31	1.0114	2	0.0
11	7	-3	99.31	1.0114	2	0.0
7	7	4	99.35	1.0112	2	0.0
7	-7	4	99.35	1.0112	2	0.0
3	11	4	99.36	1.0111	2	0.0
0	18	1	99.62	1.0091	2	0.0
0	18	-1	99.62	1.0091	2	0.0
12	10	-1	99.63	1.0091	2	0.0
14	2	1	99.66	1.0089	2	0.0
14	-2	1	99.66	1.0089	2	0.0
4	14	3	99.68	1.0087	2	0.0
12	4	-3	99.77	1.0081	2	0.1
12	-4	-3	99.77	1.0081	2	0.1
1	15	3	99.78	1.0079	2	0.0
10	-2	-4	99.83	1.0076	2	0.0
10	2	-4	99.83	1.0076	2	0.0
0	12	-4	99.89	1.0072	2	2.4
0	12	4	99.89	1.0072	2	2.4
13	-7	1	99.93	1.0068	2	0.0
13	7	1	99.93	1.0068	2	0.0
9	13	-2	99.96	1.0067	2	0.1
4	0	5	99.96	1.0066	2	0.3
1	17	-2	100.00	1.0064	2	0.0
0	6	5	100.04	1.0060	2	0.0
0	6	-5	100.04	1.0060	2	0.0