File: Antigorite/powderpattern_table_1.csv
H	K	L	2THETA	D-VALUE	MULT	INTENSITY
3	0	0	6.10	14.4978	2	1.2
5	0	0	10.17	8.6987	2	0.6
0	0	1	12.19	7.2611	2	1000.0
4	-1	0	12.56	7.0459	2	4.3
5	-1	0	13.97	6.3372	2	5.6
0	1	-1	15.51	5.7118	2	1.7
1	-1	-1	15.61	5.6765	2	1.2
2	-1	-1	15.97	5.5492	2	2.0
3	1	-1	16.58	5.3474	2	0.8
7	1	0	17.19	5.1579	2	27.2
4	1	1	17.67	5.0193	2	1.3
7	0	-1	18.58	4.7755	2	1.6
7	0	1	19.01	4.6681	2	2.6
6	-1	-1	19.61	4.5265	2	5.6
3	2	0	20.15	4.4067	2	0.0
9	-1	0	20.74	4.2834	2	93.8
7	-1	-1	20.93	4.2435	2	1.6
9	0	-1	21.86	4.0665	2	0.4
10	1	0	22.59	3.9360	2	2.6
0	2	1	22.79	3.9012	2	58.1
1	-2	1	22.91	3.8813	2	38.5
2	-2	1	23.21	3.8317	2	1.9
3	2	1	23.69	3.7555	2	2.1
10	0	1	24.09	3.6939	2	2.3
9	-1	1	24.34	3.6568	2	83.5
1	0	-2	24.56	3.6249	2	403.5
5	-2	-1	24.90	3.5762	2	0.5
8	2	0	25.28	3.5230	2	0.0
10	1	-1	25.52	3.4910	2	4.9
10	-1	1	25.97	3.4305	2	3.1
0	1	-2	26.37	3.3796	2	0.3
12	-1	0	26.41	3.3747	2	1.0
2	-1	-2	26.60	3.3504	2	0.6
2	-1	2	26.78	3.3287	2	0.2
3	-1	-2	26.96	3.3071	2	0.3
6	0	-2	27.22	3.2765	2	1.7
4	-1	-2	27.47	3.2471	2	1.5
4	1	2	27.81	3.2079	2	0.1
5	-1	-2	28.12	3.1732	2	0.9
8	-2	1	28.32	3.1512	2	0.0
14	0	0	28.74	3.1067	2	0.3
12	-1	-1	28.93	3.0857	2	1.2
9	-2	-1	29.24	3.0541	2	0.1
6	-1	2	29.40	3.0382	2	0.1
9	2	1	29.61	3.0173	2	0.0
11	2	0	29.72	3.0055	2	0.0
4	3	0	30.12	2.9667	2	0.5
9	0	-2	30.45	2.9353	2	1.1
5	3	0	30.76	2.9064	2	0.7
10	-2	1	30.98	2.8864	2	0.0
13	-1	1	31.23	2.8643	2	0.9
12	-2	0	31.35	2.8529	2	0.0
8	1	2	31.47	2.8430	2	37.9
6	-3	0	31.53	2.8376	2	1.3
1	-3	1	31.61	2.8306	2	0.3
2	3	-1	31.76	2.8177	2	0.5
2	-3	1	31.83	2.8112	2	0.4
3	2	2	32.05	2.7925	2	2.5
3	-3	1	32.19	2.7807	2	0.7
7	-3	0	32.41	2.7622	2	1.5
4	-3	-1	32.53	2.7524	2	1.0
4	-2	2	32.56	2.7500	2	0.5
5	2	-2	32.83	2.7281	2	0.7
13	2	0	33.04	2.7109	2	0.1
11	0	-2	33.11	2.7054	2	0.4
5	-3	1	33.29	2.6912	2	2.1
6	-2	-2	33.52	2.6737	2	0.2
6	-3	-1	33.81	2.6511	2	6.1
6	-2	2	33.95	2.6408	2	0.1
7	2	-2	34.32	2.6129	2	0.3
15	1	-1	34.43	2.6046	2	0.2
12	0	-2	34.56	2.5951	2	1.3
7	2	2	34.81	2.5772	2	0.2
15	-1	1	34.96	2.5668	2	0.2
8	2	-2	35.23	2.5474	2	0.2
16	0	1	35.53	2.5267	2	546.2
10	3	0	35.69	2.5156	2	0.5
8	-3	1	35.82	2.5068	2	42.1
9	-2	-2	36.24	2.4784	2	0.1
9	-3	-1	36.57	2.4571	2	74.6
12	1	2	36.75	2.4457	2	0.6
9	-3	1	36.87	2.4378	2	9.7
11	-3	0	36.97	2.4316	2	0.4
18	0	0	37.21	2.4163	2	1.7
10	2	-2	37.35	2.4074	2	0.1
3	0	-3	37.53	2.3963	2	5.5
3	0	3	37.82	2.3784	2	5.0
10	3	1	38.01	2.3672	2	1.3
17	1	-1	38.29	2.3509	2	0.1
12	-3	0	38.32	2.3486	2	0.1
16	-2	0	38.41	2.3436	2	0.1
15	-2	-1	38.45	2.3411	2	0.1
18	1	0	38.51	2.3379	2	0.2
11	2	-2	38.55	2.3353	2	0.1
2	3	2	38.59	2.3330	2	0.2
3	1	-3	38.82	2.3197	2	0.2
11	3	-1	38.89	2.3156	2	0.3
15	2	1	38.93	2.3135	2	0.1
1	4	0	39.00	2.3095	2	0.0
3	-1	3	39.10	2.3035	2	0.1
4	-1	-3	39.17	2.2996	2	0.4
15	0	-2	39.32	2.2915	2	2.9
3	-4	0	39.45	2.2839	2	0.0
5	-3	-2	39.57	2.2775	2	0.0
13	-3	0	39.75	2.2675	2	0.2
14	-1	2	39.83	2.2631	2	0.2
5	-1	3	40.10	2.2485	2	0.1
12	3	-1	40.18	2.2445	2	0.0
15	0	2	40.25	2.2406	2	56.9
7	0	3	40.30	2.2379	2	0.6
6	3	2	40.52	2.2260	2	1.0
12	2	2	40.57	2.2237	2	0.0
16	-2	1	40.69	2.2175	2	0.2
7	3	-2	40.85	2.2092	2	45.1
0	4	1	40.95	2.2037	2	9.6
16	0	-2	41.02	2.2004	2	14.7
2	4	-1	41.14	2.1940	2	0.0
2	-4	1	41.20	2.1909	2	0.0
9	0	-3	41.33	2.1843	2	0.5
3	-4	1	41.49	2.1764	2	0.0
13	-3	-1	41.54	2.1741	2	0.0
8	1	-3	41.65	2.1682	2	1.7
4	-4	-1	41.76	2.1627	2	0.0
13	-2	2	41.96	2.1530	2	0.0
8	-3	2	42.11	2.1457	2	27.8
1	2	-3	42.15	2.1441	2	0.1
16	-1	-2	42.21	2.1407	2	0.0
2	2	-3	42.26	2.1384	2	0.6
8	1	3	42.37	2.1334	2	6.2
2	2	3	42.44	2.1299	2	0.3
17	-2	1	42.49	2.1274	2	8.8
9	1	-3	42.52	2.1259	2	7.4
3	-2	3	42.75	2.1152	2	0.7
15	-3	0	42.81	2.1124	2	0.2
19	1	1	42.82	2.1117	2	0.1
9	-3	2	43.05	2.1013	2	10.9
4	-2	3	43.16	2.0959	2	0.3
9	-1	3	43.31	2.0890	2	3.0
14	3	1	43.37	2.0861	2	0.1
7	4	-1	43.48	2.0815	2	0.0
5	-2	3	43.68	2.0724	2	0.3
20	0	1	43.73	2.0702	2	1.3
18	2	-1	43.83	2.0657	2	0.0
15	2	-2	44.10	2.0534	2	0.0
8	-4	-1	44.24	2.0473	2	0.0
11	0	3	44.33	2.0435	2	0.1
10	-4	0	44.36	2.0420	2	0.0
16	3	0	44.43	2.0391	2	0.1
11	-1	-3	44.53	2.0347	2	0.9
18	0	-2	44.56	2.0332	2	0.1
15	-3	1	44.89	2.0192	2	0.3
15	-2	2	44.95	2.0165	2	0.1
8	2	-3	45.13	2.0090	2	0.0
9	4	1	45.35	1.9998	2	0.0
11	1	3	45.45	1.9954	2	0.1
16	-2	-2	45.66	1.9871	2	1.0
12	-3	-2	45.69	1.9855	2	0.1
8	2	3	45.80	1.9812	2	0.0
16	3	-1	46.02	1.9721	2	0.0
17	3	0	46.10	1.9690	2	0.1
10	4	1	46.32	1.9602	2	0.0
21	-1	-1	46.36	1.9585	2	0.0
16	-2	2	46.54	1.9514	2	3.7
12	-4	0	46.58	1.9496	2	0.0
12	-1	3	46.65	1.9471	2	0.2
2	-4	-2	46.70	1.9449	2	0.1
10	2	-3	46.85	1.9392	2	0.1
13	3	-2	46.91	1.9368	2	0.5
22	-1	0	47.00	1.9333	2	0.2
3	-4	2	47.08	1.9300	2	0.0
17	-2	-2	47.27	1.9230	2	10.3
4	-4	2	47.45	1.9158	2	0.0
13	-3	2	47.61	1.9098	2	0.1
5	-4	-2	47.65	1.9084	2	0.1
0	3	3	47.77	1.9039	2	0.0
18	3	0	47.82	1.9020	2	0.2
1	-3	3	47.86	1.9006	2	0.2
5	-4	2	47.92	1.8983	2	0.0
3	3	-3	48.09	1.8922	2	0.9
21	2	0	48.14	1.8903	2	0.1
20	-2	1	48.16	1.8896	2	0.1
17	2	2	48.18	1.8887	2	6.2
20	0	-2	48.28	1.8848	2	0.3
15	0	-3	48.43	1.8795	2	10.3
12	4	1	48.49	1.8771	2	0.0
4	-3	3	48.70	1.8696	2	0.1
5	3	-3	48.78	1.8670	2	5.5
18	-2	-2	48.93	1.8613	2	1.2
14	-4	0	49.11	1.8551	2	0.0
5	-3	3	49.17	1.8529	2	0.1
14	-1	3	49.25	1.8502	2	0.1
18	3	-1	49.31	1.8481	2	0.0
13	-4	-1	49.36	1.8463	2	0.0
8	-4	-2	49.45	1.8433	2	0.1
15	3	-2	49.56	1.8393	2	0.2
15	0	3	49.61	1.8374	2	51.6
6	3	3	49.73	1.8333	2	0.1
7	-3	-3	49.84	1.8297	2	44.7
16	0	-3	49.87	1.8287	2	12.5
13	-2	-3	50.05	1.8224	2	0.1
22	2	0	50.18	1.8179	2	0.0
1	0	-4	50.26	1.8154	2	4.8
24	0	0	50.35	1.8122	2	0.1
20	1	2	50.38	1.8112	2	0.0
8	3	-3	50.50	1.8072	2	0.7
23	-1	-1	50.57	1.8050	2	0.0
19	2	-2	50.65	1.8022	2	0.1
3	0	4	50.83	1.7961	2	0.9
6	5	0	50.94	1.7927	2	0.4
14	4	1	50.97	1.7915	2	0.1
19	3	-1	51.03	1.7897	2	0.0
10	4	-2	51.08	1.7881	2	0.1
8	3	3	51.12	1.7869	2	7.1
5	0	-4	51.17	1.7852	2	1.1
9	-3	-3	51.25	1.7825	2	81.8
21	0	2	51.28	1.7814	2	0.4
17	0	-3	51.36	1.7788	2	1.9
1	-1	4	51.38	1.7782	2	0.0
20	-3	0	51.41	1.7772	2	0.3
3	1	-4	51.55	1.7729	2	0.1
2	1	4	51.57	1.7721	2	0.0
19	-2	2	51.62	1.7706	2	0.9
4	5	1	51.72	1.7674	2	0.1
4	-1	-4	51.82	1.7642	2	0.0
9	3	3	51.94	1.7606	2	1.6
5	5	-1	52.02	1.7580	2	0.0
16	1	3	52.12	1.7549	2	0.0
5	5	1	52.14	1.7540	2	0.3
4	1	4	52.22	1.7516	2	0.2
23	2	0	52.26	1.7504	2	0.0
15	-4	1	52.32	1.7486	2	0.0
17	1	-3	52.38	1.7468	2	0.0
6	-5	-1	52.51	1.7428	2	0.4
11	-4	2	52.57	1.7408	2	0.0
6	5	1	52.66	1.7382	2	0.2
24	1	-1	52.71	1.7365	2	0.1
10	3	3	52.84	1.7326	2	1.1
11	3	-3	53.00	1.7277	2	6.2
7	5	-1	53.08	1.7252	2	0.2
6	-1	4	53.23	1.7208	2	0.8
21	-3	0	53.28	1.7193	2	0.0
24	-1	1	53.31	1.7184	2	1.9
17	-4	0	53.40	1.7157	2	11.7
8	0	4	53.59	1.7100	2	0.0
12	-4	2	53.63	1.7088	2	0.1
15	2	3	53.67	1.7076	2	1.6
8	1	-4	53.79	1.7042	2	2.8
10	5	0	53.85	1.7026	2	0.3
16	2	-3	53.91	1.7006	2	5.5
12	3	-3	53.99	1.6982	2	1.2
13	-4	-2	54.13	1.6943	2	0.0
21	2	-2	54.23	1.6913	2	0.0
1	-2	-4	54.28	1.6899	2	1.1
2	-2	-4	54.36	1.6875	2	0.1
9	0	4	54.40	1.6866	2	0.1
25	0	1	54.52	1.6831	2	0.2
2	-2	4	54.56	1.6819	2	0.3
9	-5	1	54.70	1.6778	2	5.7
11	-5	0	54.78	1.6758	2	0.1
3	-2	4	54.83	1.6743	2	0.0
25	-1	-1	54.89	1.6727	2	7.8
0	4	3	54.91	1.6721	2	1.7
1	-4	3	54.99	1.6699	2	5.5
13	3	-3	55.06	1.6678	2	1.0
23	1	-2	55.14	1.6655	2	0.1
2	4	3	55.16	1.6652	2	1.6
22	3	0	55.19	1.6643	2	1.1
18	1	3	55.23	1.6631	2	0.0
10	-1	-4	55.28	1.6616	2	0.5
10	-5	-1	55.31	1.6609	2	0.3
9	-1	4	55.37	1.6592	2	1.6
25	-1	1	55.49	1.6559	2	4.7
10	-5	1	55.55	1.6543	2	0.3
5	2	4	55.63	1.6522	2	0.1
4	4	3	55.75	1.6487	2	0.1
12	5	0	55.78	1.6479	2	0.1
1	5	2	55.83	1.6466	2	0.0
19	0	3	55.92	1.6443	2	6.2
13	3	3	56.00	1.6420	2	0.0
7	-2	-4	56.10	1.6395	2	0.1
11	-1	-4	56.15	1.6380	2	0.5
5	4	3	56.18	1.6372	2	0.0
11	5	-1	56.21	1.6364	2	0.0
24	2	1	56.23	1.6358	2	0.0
23	-1	2	56.25	1.6354	2	0.0
4	5	-2	56.36	1.6324	2	0.1
22	3	-1	56.48	1.6291	2	0.6
19	3	2	56.54	1.6278	2	0.0
17	2	3	56.56	1.6272	2	0.1
8	2	-4	56.70	1.6235	2	0.0
18	4	1	56.73	1.6226	2	1.2
7	-4	-3	56.79	1.6211	2	0.0
19	1	3	56.87	1.6189	2	0.0
22	-3	1	57.01	1.6154	2	0.1
23	-3	0	57.14	1.6120	2	0.3
24	1	-2	57.16	1.6116	2	1.6
6	5	-2	57.17	1.6111	2	0.6
11	-1	4	57.20	1.6105	2	0.3
12	0	4	57.28	1.6083	2	0.3
24	0	2	57.34	1.6067	2	0.1
15	-3	-3	57.42	1.6049	2	0.2
6	5	2	57.46	1.6038	2	0.0
26	-1	1	57.70	1.5976	2	2.4
16	-4	-2	57.84	1.5942	2	5.2
8	-4	3	57.96	1.5911	2	0.0
14	5	0	58.02	1.5896	2	0.0
18	2	3	58.09	1.5879	2	3.1
27	1	0	58.12	1.5870	2	0.0
9	-2	4	58.22	1.5845	2	0.0
20	4	0	58.23	1.5843	2	0.0
24	1	2	58.28	1.5830	2	0.5
19	4	1	58.32	1.5821	2	0.3
13	0	4	58.39	1.5804	2	1.7
15	-3	3	58.47	1.5784	2	0.0
16	4	2	58.59	1.5756	2	2.7
8	5	2	58.69	1.5730	2	3.2
10	4	-3	58.85	1.5691	2	0.1
23	3	1	58.93	1.5672	2	5.6
9	5	-2	59.01	1.5652	2	5.0
0	3	-4	59.05	1.5643	2	0.0
23	-2	2	59.07	1.5637	2	0.0
1	-3	4	59.14	1.5622	2	0.1
17	4	-2	59.21	1.5605	2	0.3
3	3	-4	59.29	1.5586	2	0.0
13	1	4	59.32	1.5578	2	0.0
21	0	3	59.40	1.5560	2	0.6
28	0	0	59.51	1.5533	2	0.1
10	-4	3	59.55	1.5525	2	0.0
19	2	3	59.68	1.5493	2	1.5
11	-4	-3	59.70	1.5489	2	0.0
16	3	3	59.81	1.5464	2	0.0
12	-2	-4	59.89	1.5443	2	0.0
27	1	1	59.94	1.5431	2	0.1
20	2	-3	59.96	1.5428	2	0.2
20	4	1	59.97	1.5425	2	0.1
0	6	0	60.00	1.5418	2	196.1
2	-6	0	60.16	1.5380	2	0.0
6	-3	-4	60.27	1.5354	2	12.5
24	-3	-1	60.35	1.5337	2	58.3
15	-1	-4	60.37	1.5333	2	0.0
28	1	0	60.43	1.5319	2	0.7
14	1	4	60.49	1.5304	2	0.0
15	5	-1	60.56	1.5288	2	0.0
11	5	-2	60.63	1.5272	2	0.1
4	-6	0	60.66	1.5266	2	0.0
22	3	-2	60.77	1.5242	2	0.5
13	-2	-4	60.88	1.5215	2	0.2
24	3	1	60.90	1.5212	2	34.7
5	-6	0	61.03	1.5182	2	0.0
11	5	2	61.13	1.5159	2	0.3
17	3	3	61.20	1.5143	2	0.0
28	0	1	61.31	1.5119	2	0.1
7	-3	4	61.40	1.5099	2	28.2
18	-3	-3	61.45	1.5088	2	0.2
6	6	0	61.48	1.5081	2	0.0
1	-6	1	61.53	1.5071	2	0.1
28	-1	-1	61.59	1.5058	2	0.3
13	-4	-3	61.61	1.5053	2	0.1
2	-6	1	61.67	1.5041	2	0.1
22	4	0	61.73	1.5028	2	0.0
3	-6	-1	61.81	1.5009	2	0.2
3	-6	1	61.88	1.4994	2	0.2
14	-2	-4	61.95	1.4980	2	0.4
17	0	-4	62.00	1.4968	2	38.3
8	-3	4	62.06	1.4955	2	1.8
4	-6	-1	62.09	1.4949	2	0.1
19	-4	-2	62.14	1.4938	2	0.2
16	-5	1	62.18	1.4928	2	0.0
25	3	-1	62.35	1.4893	2	1.0
26	-1	2	62.47	1.4866	2	0.1
13	5	-2	62.55	1.4849	2	0.0
23	3	-2	62.59	1.4842	2	3.3
18	-3	3	62.67	1.4825	2	0.0
10	-3	-4	62.72	1.4814	2	2.1
6	6	-1	62.88	1.4780	2	0.0
25	3	1	62.91	1.4774	2	2.4
19	-4	2	62.99	1.4757	2	0.1
21	2	3	63.03	1.4748	2	0.4
25	2	2	63.07	1.4739	2	0.0
13	5	2	63.13	1.4726	2	0.1
14	-2	4	63.20	1.4712	2	0.7
0	5	3	63.26	1.4699	2	0.0
9	6	0	63.31	1.4689	2	0.0
1	5	3	63.34	1.4684	2	0.0
7	-6	-1	63.39	1.4673	2	0.0
27	-1	-2	63.43	1.4664	2	0.0
11	-3	-4	63.52	1.4646	2	0.2
7	-6	1	63.55	1.4640	2	0.1
10	3	4	63.61	1.4628	2	20.8
14	-5	-2	63.62	1.4625	2	0.0
3	-5	3	63.72	1.4604	2	0.0
15	4	-3	63.81	1.4586	2	0.3
23	-1	3	63.97	1.4554	2	0.4
4	-5	3	64.04	1.4540	2	0.0
5	-5	-3	64.10	1.4527	2	0.1
2	0	-5	64.17	1.4512	2	7.2
14	5	2	64.24	1.4499	2	0.0
28	-2	-1	64.27	1.4493	2	0.0
3	0	-5	64.32	1.4483	2	2.4
12	-3	-4	64.40	1.4468	2	0.2
5	-5	3	64.43	1.4460	2	0.0
20	-3	-3	64.46	1.4455	2	0.5
29	-1	1	64.52	1.4442	2	0.1
20	-4	2	64.57	1.4432	2	0.1
9	6	-1	64.65	1.4417	2	0.0
15	-5	-2	64.76	1.4396	2	0.0
19	5	0	64.79	1.4390	2	0.0
9	6	1	64.85	1.4378	2	0.0
6	5	3	64.90	1.4367	2	0.1
18	0	4	64.96	1.4355	2	0.0
1	-1	-5	64.99	1.4349	2	0.0
0	1	-5	65.01	1.4346	2	0.0
23	-2	-3	65.09	1.4329	2	0.0
30	-1	0	65.13	1.4323	2	0.1
6	0	-5	65.23	1.4303	2	0.0
21	-4	-2	65.30	1.4288	2	0.1
1	-4	-4	65.34	1.4280	2	2.2
27	-3	0	65.36	1.4278	2	0.0
15	-5	2	65.41	1.4267	2	0.0
2	-4	-4	65.42	1.4266	2	2.2
1	-4	4	65.43	1.4263	2	1.9
7	5	3	65.45	1.4260	2	0.5
17	-2	-4	65.55	1.4241	2	0.2
3	-4	-4	65.57	1.4236	2	0.6
10	-6	1	65.61	1.4229	2	0.1
19	1	-4	65.68	1.4215	2	0.0
20	-3	3	65.77	1.4198	2	0.1
1	6	-2	65.82	1.4188	2	7.3
18	1	4	65.84	1.4186	2	0.0
1	-6	2	65.87	1.4180	2	6.0
2	6	-2	65.92	1.4170	2	1.0
30	0	1	66.00	1.4155	2	0.1
21	3	-3	66.05	1.4145	2	0.5
27	2	-2	66.07	1.4141	2	0.0
6	1	-5	66.10	1.4135	2	0.3
4	4	4	66.16	1.4125	2	0.4
11	-6	-1	66.21	1.4114	2	0.0
21	4	2	66.22	1.4113	2	0.0
5	-1	5	66.27	1.4104	2	0.1
20	-5	0	66.33	1.4092	2	0.1
25	-3	-2	66.37	1.4084	2	5.8
11	-6	1	66.45	1.4069	2	0.0
27	3	-1	66.48	1.4064	2	0.0
29	-2	-1	66.51	1.4057	2	0.0
7	1	-5	66.56	1.4049	2	0.3
23	-2	3	66.60	1.4042	2	0.0
5	-6	-2	66.68	1.4026	2	0.3
13	6	0	66.81	1.4003	2	0.0
30	1	1	66.87	1.3992	2	0.1
5	6	2	66.90	1.3986	2	0.3
29	0	-2	66.95	1.3976	2	0.7
22	4	-2	66.97	1.3972	2	0.1
27	3	1	67.06	1.3956	2	0.0
8	1	-5	67.09	1.3950	2	0.1
12	6	-1	67.10	1.3948	2	0.0
17	5	-2	67.24	1.3924	2	0.0
7	1	5	67.32	1.3909	2	0.1
6	-6	2	67.35	1.3904	2	0.1
17	-4	3	67.39	1.3896	2	1.4
25	3	2	67.45	1.3885	2	11.7
28	3	0	67.52	1.3873	2	0.5
31	-1	0	67.52	1.3872	2	0.0
7	-6	-2	67.57	1.3862	2	0.1
1	2	-5	67.60	1.3858	2	0.1
18	-4	-3	67.62	1.3853	2	0.0
22	3	-3	67.70	1.3840	2	1.5
1	-2	5	67.71	1.3839	2	0.1
3	-2	-5	67.80	1.3821	2	0.1
25	-1	3	67.82	1.3818	2	0.6
7	6	2	67.87	1.3808	2	0.1
21	5	0	67.93	1.3798	2	0.0
8	-1	5	67.95	1.3794	2	0.8
20	0	4	68.03	1.3780	2	0.6
9	-4	-4	68.13	1.3762	2	0.0
26	-1	-3	68.16	1.3757	2	0.7
8	4	4	68.20	1.3750	2	0.0
5	-2	-5	68.32	1.3730	2	0.0
10	-1	-5	68.39	1.3718	2	0.1
18	-2	4	68.43	1.3710	2	0.3
24	-2	3	68.46	1.3705	2	0.0
12	5	-3	68.55	1.3688	2	0.0
31	1	-1	68.58	1.3683	2	0.0
16	-3	-4	68.62	1.3676	2	0.2
23	4	-2	68.70	1.3662	2	0.1
15	-3	4	68.74	1.3655	2	0.2
25	-2	-3	68.79	1.3648	2	0.0
10	-4	-4	68.83	1.3640	2	0.0
9	-4	4	68.90	1.3627	2	0.0
25	4	1	69.01	1.3609	2	0.0
29	-1	2	69.06	1.3601	2	0.0
32	0	0	69.11	1.3592	2	0.0
7	-2	-5	69.14	1.3587	2	0.0
28	-3	1	69.21	1.3575	2	0.4
12	5	3	69.32	1.3556	2	0.0
6	2	5	69.33	1.3554	2	0.1
28	-2	2	69.39	1.3543	2	0.0
30	-2	1	69.44	1.3535	2	0.0
10	1	5	69.45	1.3533	2	0.0
13	-5	-3	69.48	1.3527	2	0.1
11	-4	-4	69.59	1.3509	2	0.0
8	-2	-5	69.66	1.3497	2	0.0
29	3	0	69.72	1.3487	2	0.0
26	1	3	69.82	1.3470	2	1.1
19	-2	4	69.89	1.3458	2	0.8
32	1	0	69.96	1.3447	2	0.0
16	3	4	69.98	1.3444	2	0.0
31	-2	0	70.08	1.3426	2	0.0
16	6	0	70.17	1.3411	2	1.3
19	-4	3	70.23	1.3401	2	0.0
11	-1	5	70.31	1.3389	2	0.2
22	1	-4	70.33	1.3385	2	0.1
25	2	3	70.38	1.3378	2	0.0
12	-4	-4	70.43	1.3368	2	0.1
24	-4	-2	70.49	1.3359	2	0.1
21	1	4	70.50	1.3357	2	0.1
11	-4	4	70.52	1.3353	2	0.0
11	-6	2	70.73	1.3319	2	0.1
29	-3	-1	70.79	1.3310	2	0.0
13	-1	-5	70.88	1.3295	2	0.0
26	4	1	70.97	1.3279	2	0.0
12	6	-2	71.12	1.3255	2	0.3
18	3	-4	71.14	1.3252	2	0.1
22	5	1	71.20	1.3244	2	0.0
21	-2	-4	71.26	1.3233	2	0.3
23	-5	0	71.31	1.3225	2	0.0
13	4	-4	71.34	1.3220	2	0.0
14	5	3	71.37	1.3216	2	0.0
29	3	1	71.40	1.3211	2	0.0
20	-2	4	71.42	1.3207	2	0.8
20	5	-2	71.44	1.3204	2	0.0
24	-4	2	71.50	1.3195	2	0.0
15	5	-3	71.56	1.3185	2	0.0
12	6	2	71.63	1.3174	2	0.2
16	-6	1	71.71	1.3161	2	75.6
20	4	3	71.75	1.3155	2	0.0
14	1	-5	71.85	1.3139	2	0.0
27	1	3	71.87	1.3135	2	0.2
30	-3	0	71.97	1.3120	2	0.2
10	-2	5	71.98	1.3119	2	0.1
3	3	-5	72.04	1.3109	2	0.1
2	-3	5	72.11	1.3098	2	0.0
28	1	-3	72.23	1.3079	2	0.1
20	5	2	72.28	1.3071	2	0.0
14	4	-4	72.32	1.3065	2	0.0
3	-3	5	72.35	1.3060	2	0.1
28	3	-2	72.43	1.3049	2	0.2
33	-1	0	72.43	1.3048	2	0.0
32	-2	0	72.48	1.3040	2	0.5
15	-5	3	72.50	1.3037	2	0.0
30	2	-2	72.59	1.3023	2	0.0
17	-6	-1	72.61	1.3020	2	12.5
4	-3	5	72.67	1.3011	2	0.3
16	5	-3	72.70	1.3006	2	0.0
1	-6	-3	72.72	1.3003	2	2.3
1	7	-1	72.75	1.2998	2	0.0
1	7	1	72.77	1.2995	2	0.0
11	-2	5	72.82	1.2987	2	0.0
2	7	-1	72.86	1.2982	2	0.0
2	7	1	72.90	1.2976	2	0.0
23	-5	1	72.91	1.2974	2	0.0
17	6	1	72.97	1.2965	2	0.1
27	4	1	72.99	1.2962	2	0.0
1	-5	-4	73.01	1.2958	2	0.0
0	5	4	73.02	1.2958	2	0.0
5	3	5	73.06	1.2951	2	1.7
24	5	0	73.09	1.2947	2	1.2
3	-7	1	73.10	1.2945	2	0.0
4	-6	-3	73.19	1.2931	2	0.0
3	5	-4	73.23	1.2925	2	0.0
33	0	1	73.29	1.2916	2	18.4
7	3	-5	73.34	1.2908	2	1.0
4	7	1	73.37	1.2904	2	0.0
28	-4	0	73.43	1.2895	2	0.0
4	-6	3	73.44	1.2893	2	0.1
14	4	4	73.49	1.2886	2	0.0
5	-6	-3	73.50	1.2884	2	0.1
28	3	2	73.59	1.2871	2	0.0
15	0	5	73.62	1.2867	2	2.1
31	-1	2	73.66	1.2861	2	0.0
5	7	1	73.72	1.2852	2	0.1
5	-5	-4	73.75	1.2847	2	0.0
8	-7	0	73.78	1.2842	2	0.5
21	-5	2	73.84	1.2833	2	0.0
6	6	-3	73.88	1.2827	2	0.0
23	1	4	73.91	1.2822	2	0.4
28	1	3	73.98	1.2813	2	0.1
6	7	-1	74.02	1.2807	2	0.1
15	6	-2	74.12	1.2792	2	1.8
33	1	1	74.12	1.2792	2	0.0
19	-6	0	74.15	1.2788	2	0.4
24	-5	-1	74.19	1.2782	2	0.1
6	6	3	74.25	1.2772	2	0.1
7	6	-3	74.34	1.2760	2	0.1
14	-2	-5	74.35	1.2759	2	1.1
9	-7	0	74.42	1.2748	2	3.3
28	4	-1	74.48	1.2738	2	0.0
16	4	-4	74.49	1.2737	2	0.6
25	3	3	74.55	1.2729	2	0.1
22	5	-2	74.57	1.2726	2	0.0
7	-7	1	74.64	1.2716	2	0.4
8	3	5	74.68	1.2710	2	0.9
32	-1	-2	74.71	1.2705	2	0.0
15	-6	2	74.74	1.2702	2	3.4
31	-2	-2	74.86	1.2684	2	0.1
26	-3	-3	74.88	1.2681	2	0.7
25	-5	0	74.92	1.2674	2	0.1
22	-4	3	74.97	1.2668	2	0.0
28	4	1	75.06	1.2655	2	0.0
34	0	-1	75.11	1.2648	2	11.5
18	-5	-3	75.19	1.2637	2	0.0
8	-7	1	75.21	1.2634	2	1.3
23	-4	-3	75.26	1.2627	2	0.0
26	-4	2	75.29	1.2621	2	0.0
9	-3	5	75.36	1.2612	2	15.7
21	-3	-4	75.42	1.2604	2	0.1
25	1	-4	75.52	1.2589	2	0.8
20	-3	4	75.58	1.2581	2	0.1
16	1	5	75.65	1.2570	2	0.0
19	-6	1	75.68	1.2567	2	0.3
24	1	4	75.71	1.2562	2	0.4
8	-5	4	75.74	1.2558	2	0.1
16	4	4	75.81	1.2548	2	0.5
16	-6	2	75.91	1.2534	2	7.8
33	-2	-1	75.91	1.2534	2	1.2
25	-5	-1	76.00	1.2521	2	2.2
32	-1	2	76.03	1.2518	2	0.0
29	-1	3	76.13	1.2503	2	0.0
27	4	-2	76.18	1.2497	2	0.0
23	5	-2	76.22	1.2491	2	0.0
10	5	-4	76.34	1.2474	2	0.2
9	5	4	76.41	1.2464	2	0.3
28	2	3	76.44	1.2460	2	0.0
26	3	3	76.48	1.2455	2	1.8
25	-5	1	76.51	1.2450	2	2.4
10	7	1	76.56	1.2443	2	0.1
32	3	0	76.61	1.2437	2	0.1
34	1	1	76.62	1.2435	2	0.0
30	-3	-2	76.72	1.2422	2	0.0
25	0	4	76.75	1.2418	2	0.1
12	7	0	76.76	1.2416	2	0.0
29	2	-3	76.81	1.2410	2	0.1
2	-7	-2	76.85	1.2404	2	0.0
15	-2	5	76.91	1.2396	2	0.9
19	0	-5	76.93	1.2393	2	0.1
24	4	-3	76.97	1.2388	2	0.1
3	7	-2	77.02	1.2382	2	0.0
33	-1	-2	77.11	1.2369	2	0.0
11	-7	-1	77.13	1.2367	2	0.1
3	7	2	77.14	1.2365	2	0.0
10	-5	4	77.15	1.2363	2	0.1
29	4	1	77.19	1.2359	2	0.0
27	-4	2	77.28	1.2346	2	0.0
34	-2	0	77.40	1.2329	2	2.8
13	3	-5	77.50	1.2317	2	0.3
11	-6	3	77.56	1.2308	2	0.1
5	-7	-2	77.57	1.2307	2	0.0
0	4	5	77.63	1.2299	2	3.4
35	0	-1	77.65	1.2296	2	0.3
19	5	3	77.69	1.2291	2	0.0
1	4	5	77.72	1.2287	2	0.0
19	1	-5	77.75	1.2283	2	0.0
3	-4	-5	77.81	1.2275	2	0.9
2	-4	5	77.88	1.2266	2	0.5
24	5	-2	77.93	1.2258	2	0.5
30	-3	2	77.94	1.2258	2	0.0
11	5	4	77.97	1.2254	2	0.1
4	-4	-5	78.02	1.2247	2	0.4
24	-2	4	78.16	1.2229	2	0.1
6	7	2	78.19	1.2224	2	0.1
32	3	1	78.26	1.2216	2	0.1
18	-1	5	78.27	1.2215	2	0.0
30	-1	3	78.34	1.2205	2	0.0
18	4	4	78.40	1.2197	2	0.2
4	4	5	78.42	1.2194	2	0.5
12	6	3	78.44	1.2192	2	0.4
18	-6	2	78.46	1.2189	2	2.9
35	-1	-1	78.47	1.2189	2	0.0
29	2	3	78.58	1.2174	2	0.0
6	4	-5	78.65	1.2165	2	0.1
14	-7	0	78.68	1.2161	2	0.0
22	-6	0	78.70	1.2158	2	0.0
25	-4	-3	78.74	1.2153	2	0.0
13	5	-4	78.76	1.2151	2	0.1
5	4	5	78.80	1.2145	2	0.4
12	5	4	78.85	1.2138	2	0.0
18	2	-5	78.88	1.2135	2	0.0
8	7	-2	78.94	1.2127	2	0.8
33	3	0	79.00	1.2119	2	0.0
19	-6	-2	79.07	1.2111	2	0.3
20	1	-5	79.13	1.2103	2	0.0
20	5	3	79.15	1.2100	2	0.0
6	4	5	79.26	1.2087	2	0.1
27	1	-4	79.27	1.2084	2	0.0
30	4	1	79.36	1.2073	2	0.0
13	-6	3	79.39	1.2070	2	0.7
15	3	-5	79.45	1.2062	2	0.2
9	7	-2	79.54	1.2051	2	0.6
14	-6	-3	79.56	1.2049	2	0.0
20	4	-4	79.65	1.2037	2	0.0
14	5	-4	79.71	1.2030	2	0.0
5	0	-6	79.75	1.2024	2	0.0
22	6	-1	79.79	1.2019	2	0.0
26	-2	-4	79.80	1.2018	2	0.0
19	-6	2	79.84	1.2013	2	0.3
14	-3	5	79.86	1.2011	2	0.1
35	-2	0	79.94	1.2001	2	0.0
2	1	-6	79.97	1.1996	2	0.0
33	-3	-1	79.98	1.1995	2	0.0
6	0	-6	80.09	1.1982	2	0.0
34	0	2	80.11	1.1979	2	2.6
19	-2	-5	80.18	1.1970	2	0.7
2	-1	6	80.22	1.1966	2	0.0
22	6	1	80.24	1.1964	2	0.1
25	-4	3	80.26	1.1961	2	0.0
20	0	5	80.34	1.1950	2	0.6
5	0	6	80.36	1.1949	2	0.1
28	0	-4	80.44	1.1939	2	1.1
20	-6	-2	80.48	1.1934	2	0.4
16	-3	-5	80.54	1.1927	2	0.2
26	4	-3	80.58	1.1921	2	0.0
31	1	3	80.60	1.1919	2	0.0
33	-3	1	80.65	1.1913	2	0.1
18	-2	5	80.70	1.1907	2	0.5
30	2	3	80.77	1.1899	2	0.1
28	5	0	80.78	1.1897	2	0.4
14	-5	4	80.84	1.1890	2	0.0
33	2	2	80.87	1.1885	2	0.8
6	-1	-6	80.90	1.1882	2	0.0
22	-5	-3	80.95	1.1876	2	0.0
15	3	5	80.96	1.1874	2	0.2
32	1	-3	81.00	1.1870	2	0.0
9	-4	5	81.05	1.1864	2	0.0
20	1	5	81.15	1.1852	2	0.1
15	7	1	81.20	1.1846	2	0.0
28	-1	-4	81.24	1.1841	2	0.1
22	0	-5	81.29	1.1835	2	0.2
11	7	2	81.40	1.1821	2	0.2
34	-3	0	81.45	1.1816	2	0.1
15	-6	3	81.49	1.1811	2	15.3
26	-5	-2	81.55	1.1804	2	0.1
31	4	1	81.60	1.1798	2	0.1
16	6	-3	81.69	1.1788	2	0.1
36	-1	1	81.78	1.1777	2	0.0
10	4	5	81.80	1.1775	2	0.0
16	-5	-4	81.82	1.1772	2	0.0
26	2	4	81.90	1.1763	2	0.0
21	6	-2	81.95	1.1756	2	0.1
1	6	-4	81.99	1.1752	2	1.8
25	3	-4	82.01	1.1749	2	2.9
2	6	-4	82.06	1.1744	2	0.6
1	6	4	82.07	1.1742	2	1.4
22	1	-5	82.10	1.1739	2	0.0
26	-4	3	82.15	1.1733	2	0.0
24	3	4	82.20	1.1727	2	0.6
2	6	4	82.22	1.1725	2	0.7
22	5	3	82.28	1.1718	2	0.0
16	-7	1	82.34	1.1711	2	0.0
0	2	6	82.36	1.1708	2	0.2
30	-4	-2	82.38	1.1705	2	0.0
34	-3	-1	82.41	1.1702	2	0.0
1	-2	6	82.46	1.1696	2	0.1
3	-2	-6	82.51	1.1691	2	0.0
33	0	-3	82.53	1.1689	2	24.9
11	-4	5	82.61	1.1679	2	0.0
2	2	6	82.63	1.1677	2	0.1
16	6	3	82.65	1.1675	2	3.7
21	1	5	82.69	1.1670	2	0.1
4	-2	-6	82.70	1.1668	2	0.0
37	-1	0	82.76	1.1661	2	0.0
21	4	4	82.79	1.1658	2	0.0
3	2	6	82.87	1.1649	2	0.0
18	-3	-5	82.91	1.1645	2	0.2
5	-2	-6	82.97	1.1637	2	0.0
10	-1	-6	82.99	1.1636	2	0.1
31	-2	3	83.01	1.1632	2	0.1
16	-5	4	83.10	1.1623	2	0.0
24	6	-1	83.12	1.1620	2	0.0
13	-7	2	83.19	1.1613	2	0.1
32	-4	-1	83.26	1.1605	2	0.0
6	2	-6	83.31	1.1599	2	0.0
33	1	-3	83.33	1.1596	2	0.0
1	-7	3	83.37	1.1592	2	0.0
17	-3	5	83.39	1.1589	2	0.1
9	1	6	83.44	1.1584	2	0.1
36	-2	-1	83.46	1.1581	2	0.2
7	-6	-4	83.49	1.1578	2	0.0
22	0	5	83.50	1.1577	2	0.4
3	-7	-3	83.54	1.1572	2	0.0
20	-2	5	83.56	1.1571	2	0.2
30	4	2	83.59	1.1567	2	0.0
14	7	-2	83.63	1.1563	2	0.0
1	8	0	83.65	1.1560	2	0.0
11	1	-6	83.69	1.1556	2	0.1
7	-2	-6	83.72	1.1552	2	0.0
4	-7	-3	83.76	1.1547	2	0.0
25	-6	0	83.84	1.1539	2	0.0
29	5	-1	83.87	1.1536	2	0.0
23	5	3	83.94	1.1528	2	0.3
35	3	0	83.95	1.1526	2	0.0
25	3	4	84.01	1.1519	2	1.7
7	6	4	84.05	1.1515	2	0.0
18	-6	-3	84.09	1.1511	2	1.6
36	-2	1	84.18	1.1501	2	0.1
4	8	0	84.20	1.1499	2	0.0
18	5	-4	84.20	1.1498	2	0.0
23	-4	-4	84.22	1.1496	2	0.0
17	-5	4	84.33	1.1484	2	0.0
22	6	2	84.37	1.1480	2	0.2
37	-1	1	84.43	1.1473	2	0.0
29	5	1	84.44	1.1472	2	0.0
12	1	-6	84.46	1.1470	2	0.0
22	2	-5	84.50	1.1465	2	0.2
24	0	-5	84.53	1.1462	2	0.1
9	6	-4	84.57	1.1458	2	0.0
36	1	-2	84.60	1.1455	2	0.0
33	-4	0	84.63	1.1451	2	0.0
19	7	0	84.68	1.1445	2	0.0
30	-3	3	84.78	1.1435	2	0.1
18	-7	1	84.82	1.1430	2	0.0
7	7	-3	84.87	1.1425	2	0.1
25	-6	-1	84.89	1.1423	2	0.0
0	8	-1	84.92	1.1420	2	0.3
2	-5	-5	84.93	1.1419	2	0.0
1	-5	5	84.97	1.1414	2	0.0
11	1	6	85.00	1.1410	2	0.0
15	4	-5	85.08	1.1402	2	0.3
21	2	5	85.09	1.1401	2	0.3
2	5	5	85.13	1.1397	2	0.0
37	2	0	85.17	1.1393	2	0.0
3	-8	-1	85.21	1.1388	2	0.0
15	7	2	85.25	1.1383	2	0.0
3	8	1	85.27	1.1381	2	0.0
13	-1	-6	85.30	1.1378	2	0.0
32	2	3	85.32	1.1376	2	0.2
30	-1	-4	85.37	1.1371	2	0.0
10	-2	-6	85.39	1.1369	2	0.2
19	6	-3	85.40	1.1367	2	0.4
4	8	-1	85.45	1.1362	2	0.0
38	1	0	85.48	1.1359	2	0.0
5	5	-5	85.54	1.1353	2	0.0
29	-1	4	85.59	1.1347	2	0.0
35	-3	1	85.60	1.1346	2	0.1
24	-5	3	85.67	1.1339	2	1.1
26	6	0	85.68	1.1337	2	0.0
33	-2	-3	85.73	1.1332	2	0.5
5	-8	-1	85.77	1.1328	2	0.0
9	-2	6	85.84	1.1321	2	0.0
8	-7	3	85.86	1.1318	2	1.0
6	5	-5	85.88	1.1316	2	0.2
12	-1	6	85.90	1.1315	2	0.0
11	6	-4	85.93	1.1311	2	0.2
34	-3	-2	85.97	1.1307	2	0.0
30	-5	-1	85.99	1.1305	2	0.0
23	6	2	86.02	1.1302	2	0.0
23	4	4	86.06	1.1297	2	0.0
11	2	-6	86.08	1.1295	2	0.1
20	7	0	86.09	1.1294	2	0.0
16	4	-5	86.15	1.1288	2	0.4
19	-7	1	86.17	1.1286	2	0.0
33	-4	1	86.26	1.1276	2	0.1
1	3	-6	86.34	1.1268	2	0.2
2	3	-6	86.39	1.1263	2	0.4
38	-1	-1	86.40	1.1262	2	0.0
29	4	-3	86.47	1.1254	2	0.0
9	-7	3	86.50	1.1251	2	0.9
19	6	3	86.54	1.1247	2	0.5
9	-8	0	86.55	1.1246	2	0.0
30	-5	1	86.59	1.1242	2	0.0
10	-7	-3	86.62	1.1238	2	0.1
4	3	-6	86.70	1.1230	2	0.8
12	-6	-4	86.72	1.1228	2	0.8
24	6	-2	86.77	1.1222	2	0.0
11	-6	4	86.81	1.1219	2	0.0
32	4	-2	86.83	1.1217	2	0.1
3	3	6	86.87	1.1213	2	0.1
17	-7	-2	86.93	1.1207	2	0.0
5	-3	-6	86.97	1.1203	2	0.6
7	-5	5	87.00	1.1199	2	0.1
19	-5	4	87.01	1.1198	2	0.0
14	0	6	87.09	1.1190	2	1.0
4	-3	6	87.18	1.1181	2	0.0
31	5	0	87.19	1.1179	2	0.0
10	-7	3	87.22	1.1177	2	0.1
26	6	1	87.24	1.1175	2	0.0
8	8	1	87.31	1.1168	2	0.0
11	7	-3	87.35	1.1164	2	0.0
11	-2	6	87.40	1.1158	2	0.1
39	0	0	87.46	1.1152	2	0.0
25	-5	3	87.47	1.1151	2	0.3
5	3	6	87.56	1.1142	2	0.5
13	-6	-4	87.58	1.1139	2	1.3
27	-6	0	87.59	1.1138	2	0.0
25	4	-4	87.61	1.1137	2	0.0
13	2	-6	87.70	1.1128	2	0.4
7	-3	-6	87.71	1.1127	2	1.1
24	-6	2	87.73	1.1125	2	0.1
9	-8	-1	87.75	1.1123	2	0.0
30	-2	-4	87.76	1.1122	2	0.1
24	4	4	87.79	1.1118	2	0.0
37	0	2	87.89	1.1109	2	0.2
20	-6	3	87.97	1.1100	2	0.0
11	-8	0	87.99	1.1099	2	0.0
34	-4	-1	88.01	1.1097	2	0.1
32	4	2	88.10	1.1087	2	0.1
12	7	-3	88.15	1.1083	2	0.0
31	-5	-1	88.18	1.1080	2	0.0
8	-3	-6	88.19	1.1078	2	4.5
21	-6	-3	88.23	1.1075	2	0.1
16	-1	-6	88.26	1.1071	2	0.0
21	5	-4	88.31	1.1067	2	0.0
10	8	-1	88.42	1.1055	2	0.0
20	5	4	88.46	1.1052	2	0.0
18	4	-5	88.50	1.1048	2	0.1
7	3	6	88.55	1.1043	2	0.1
14	2	-6	88.61	1.1037	2	0.6
13	6	4	88.62	1.1036	2	0.1
21	-7	-1	88.65	1.1032	2	0.0
37	1	2	88.69	1.1029	2	0.0
9	-3	-6	88.74	1.1024	2	0.1
0	8	2	88.80	1.1018	2	1.1
12	-8	0	88.82	1.1017	2	0.0
12	-7	3	88.86	1.1012	2	0.0
2	8	-2	88.90	1.1008	2	0.0
2	8	2	88.98	1.1000	2	0.0
13	-7	-3	89.02	1.0997	2	0.0
21	7	1	89.07	1.0992	2	0.0
22	7	0	89.12	1.0987	2	0.0
37	-3	0	89.15	1.0984	2	0.2
39	-1	-1	89.16	1.0983	2	0.0
3	-8	2	89.18	1.0981	2	0.0
4	-8	-2	89.29	1.0970	2	0.0
10	3	-6	89.37	1.0963	2	1.7
17	1	-6	89.39	1.0961	2	0.0
25	-2	-5	89.44	1.0956	2	0.0
35	0	3	89.47	1.0953	2	0.8
19	-7	-2	89.48	1.0952	2	0.0
15	-6	-4	89.52	1.0948	2	5.0
38	2	1	89.54	1.0946	2	0.0
28	6	0	89.57	1.0943	2	0.0
5	-8	-2	89.60	1.0941	2	0.0
14	6	4	89.63	1.0938	2	1.2
33	3	-3	89.71	1.0930	2	0.1
22	-6	-3	89.74	1.0927	2	0.1
11	-5	5	89.79	1.0922	2	0.0
5	-8	2	89.80	1.0921	2	0.0
9	-3	6	89.82	1.0920	2	0.6
38	1	-2	89.90	1.0912	2	0.0
31	-2	-4	89.92	1.0910	2	0.2
21	-5	4	89.97	1.0905	2	0.1
12	8	-1	89.99	1.0903	2	0.0
11	3	-6	90.07	1.0896	2	1.9
24	-2	5	90.11	1.0892	2	0.1
16	1	6	90.17	1.0886	2	0.0
6	8	2	90.21	1.0882	2	0.0
35	-1	3	90.27	1.0877	2	0.0
18	4	5	90.29	1.0875	2	0.0
26	6	-2	90.34	1.0870	2	0.0
32	-5	-1	90.44	1.0861	2	0.0
35	4	-1	90.48	1.0857	2	0.0
28	-6	-1	90.59	1.0847	2	0.0
16	-6	-4	90.60	1.0846	2	0.5
22	7	1	90.63	1.0843	2	0.1
12	-5	5	90.67	1.0839	2	0.0
14	8	0	90.69	1.0837	2	0.0
36	-1	-3	90.71	1.0835	2	0.0
31	4	-3	90.73	1.0833	2	0.1
14	-7	3	90.79	1.0827	2	0.0
12	-3	-6	90.83	1.0824	2	0.7
8	-8	-2	90.94	1.0814	2	0.0
15	7	-3	90.97	1.0811	2	0.0
32	5	1	91.07	1.0802	2	0.0
20	-4	-5	91.13	1.0796	2	0.1
28	6	1	91.14	1.0795	2	0.0
26	-2	-5	91.22	1.0788	2	0.0
33	0	-4	91.26	1.0784	2	4.7
23	-6	-3	91.33	1.0777	2	0.0
11	3	6	91.38	1.0773	2	0.4
38	-1	2	91.41	1.0771	2	0.0
26	1	5	91.42	1.0770	2	0.1
9	-8	-2	91.54	1.0759	2	0.0
22	-5	4	91.56	1.0756	2	0.2
13	5	5	91.62	1.0751	2	0.0
19	4	5	91.67	1.0747	2	0.0
33	3	3	91.68	1.0746	2	0.0
30	3	-4	91.74	1.0740	2	0.3
17	-6	-4	91.75	1.0740	2	18.5
23	-7	-1	91.80	1.0735	2	0.0
38	3	0	91.85	1.0730	2	0.1
15	7	3	91.87	1.0729	2	0.0
9	8	2	91.89	1.0726	2	0.0
0	4	-6	91.94	1.0723	2	1.1
29	-3	4	91.96	1.0720	2	0.5
1	-4	6	92.03	1.0714	2	1.2
16	-7	-3	92.06	1.0711	2	0.0
36	4	0	92.09	1.0708	2	0.0
32	2	-4	92.15	1.0704	2	0.1
10	-8	-2	92.20	1.0699	2	0.0
23	-7	1	92.26	1.0693	2	0.0
4	-4	-6	92.27	1.0692	2	0.2
21	-7	-2	92.32	1.0688	2	0.0
23	3	5	92.34	1.0686	2	0.3
31	-2	4	92.38	1.0682	2	0.0
2	7	-4	92.43	1.0678	2	0.0
1	7	4	92.44	1.0677	2	0.0
5	-4	-6	92.54	1.0668	2	0.4
3	7	-4	92.57	1.0666	2	0.0
2	-7	4	92.59	1.0664	2	0.1
10	-8	2	92.60	1.0663	2	0.0
14	-5	5	92.64	1.0659	2	0.0
35	2	3	92.66	1.0658	2	0.1
4	-4	6	92.75	1.0650	2	0.1
33	5	-1	92.77	1.0648	2	0.0
3	-7	4	92.81	1.0645	2	0.0
36	1	3	92.85	1.0640	2	0.0
34	-4	2	92.90	1.0637	2	0.5
18	-6	-4	92.97	1.0630	2	6.6
18	2	-6	92.98	1.0629	2	1.0
16	-7	3	93.01	1.0626	2	0.0
5	7	-4	93.06	1.0622	2	0.0
36	2	-3	93.10	1.0619	2	0.0
20	-4	5	93.12	1.0617	2	0.0
21	7	2	93.16	1.0614	2	0.0
20	1	-6	93.21	1.0609	2	0.0
17	7	-3	93.22	1.0608	2	0.0
13	3	6	93.23	1.0608	2	0.5
27	-6	2	93.30	1.0601	2	0.1
16	-5	-5	93.31	1.0600	2	0.0
27	1	5	93.38	1.0594	2	0.1
27	4	4	93.42	1.0591	2	0.0
5	-7	4	93.46	1.0587	2	0.2
40	2	0	93.49	1.0585	2	0.0
37	3	-2	93.58	1.0577	2	0.0
1	-6	-5	93.63	1.0573	2	1.4
0	6	5	93.64	1.0571	2	4.7
15	-5	5	93.74	1.0563	2	0.0
12	8	-2	93.75	1.0563	2	0.0
38	-2	2	93.80	1.0558	2	0.0
26	-2	5	93.81	1.0557	2	0.0
7	7	-4	93.85	1.0554	2	0.0
2	6	5	93.89	1.0550	2	2.9
6	7	4	93.90	1.0549	2	0.3
32	-5	-2	94.00	1.0541	2	0.0
41	1	0	94.02	1.0539	2	1.2
22	-4	-5	94.06	1.0535	2	0.0
3	-6	5	94.12	1.0531	2	2.1
34	3	3	94.12	1.0530	2	0.0
28	-6	-2	94.19	1.0525	2	0.0
39	1	2	94.20	1.0524	2	0.0
17	7	3	94.23	1.0521	2	0.0
14	3	6	94.26	1.0519	2	0.2
16	8	1	94.30	1.0515	2	0.9
8	-7	-4	94.35	1.0511	2	0.3
7	-7	4	94.41	1.0506	2	0.3
24	6	3	94.43	1.0504	2	0.0
18	-7	-3	94.45	1.0502	2	0.0
35	3	-3	94.55	1.0494	2	0.1
21	1	-6	94.63	1.0487	2	0.0
16	-3	-6	94.63	1.0487	2	0.1
21	4	5	94.65	1.0485	2	0.0
32	-2	4	94.69	1.0482	2	0.0
37	4	0	94.73	1.0479	2	0.0
30	-6	-1	94.75	1.0477	2	0.1
5	6	5	94.80	1.0473	2	0.5
16	5	5	94.91	1.0464	2	0.0
9	-7	-4	94.93	1.0462	2	0.0
8	-7	4	94.99	1.0457	2	0.1
39	2	-2	95.04	1.0453	2	0.1
18	2	6	95.13	1.0445	2	1.0
17	8	-1	95.17	1.0442	2	0.7
38	0	-3	95.19	1.0440	2	0.1
6	-6	5	95.24	1.0436	2	0.2
36	2	3	95.25	1.0435	2	0.0
32	-5	2	95.27	1.0433	2	0.0
18	8	0	95.30	1.0431	2	0.0
1	8	3	95.33	1.0429	2	0.8
15	3	6	95.37	1.0425	2	0.2
9	4	6	95.40	1.0423	2	0.0
28	4	4	95.45	1.0419	2	0.0
2	8	3	95.47	1.0417	2	0.2
17	-8	1	95.50	1.0414	2	0.2
18	-7	3	95.53	1.0412	2	0.0
10	7	-4	95.57	1.0408	2	0.0
20	1	6	95.60	1.0406	2	0.0
23	4	-5	95.64	1.0403	2	0.0
11	-4	-6	95.65	1.0403	2	0.0
3	-8	3	95.68	1.0400	2	0.0
4	-8	-3	95.72	1.0396	2	0.0
25	-7	1	95.75	1.0394	2	0.4
7	6	5	95.76	1.0393	2	0.1
19	-6	4	95.78	1.0392	2	0.1
25	-3	5	95.91	1.0381	2	5.4
4	8	3	95.96	1.0377	2	0.0
2	0	-7	96.01	1.0373	2	2.2
35	0	-4	96.09	1.0366	2	0.1
22	1	-6	96.12	1.0363	2	0.1
10	4	6	96.14	1.0362	2	0.0
42	0	0	96.22	1.0356	2	0.0
22	-4	5	96.26	1.0353	2	0.0
2	0	7	96.29	1.0350	2	1.0
39	-3	1	96.31	1.0348	2	0.3
21	0	6	96.34	1.0346	2	0.1
10	7	4	96.37	1.0343	2	0.3
6	8	-3	96.39	1.0342	2	0.0
41	2	0	96.42	1.0340	2	0.0
19	-2	6	96.53	1.0331	2	0.5
26	-6	-3	96.55	1.0329	2	0.0
26	-5	-4	96.58	1.0326	2	0.0
15	8	-2	96.61	1.0324	2	0.1
35	-5	0	96.71	1.0316	2	0.0
6	-8	3	96.75	1.0313	2	0.0
1	-1	-7	96.77	1.0311	2	0.0
0	1	7	96.81	1.0308	2	0.0
7	-8	-3	96.83	1.0307	2	0.0
35	1	-4	96.89	1.0302	2	0.0
1	-1	7	96.91	1.0300	2	0.0
31	6	-1	96.95	1.0297	2	0.4
18	-3	-6	96.97	1.0295	2	0.2
9	6	5	97.02	1.0291	2	0.0
21	6	-4	97.08	1.0287	2	0.0
40	1	2	97.08	1.0287	2	0.0
12	7	-4	97.09	1.0286	2	0.0
2	-1	7	97.09	1.0286	2	0.0
24	7	-2	97.14	1.0282	2	0.6
34	1	4	97.15	1.0281	2	0.0
1	9	0	97.21	1.0276	2	0.0
20	6	4	97.23	1.0275	2	0.0
13	-4	-6	97.26	1.0272	2	0.0
7	0	-7	97.29	1.0270	2	0.1
30	4	-4	97.33	1.0267	2	0.0
3	-1	7	97.34	1.0266	2	0.0
38	-4	0	97.44	1.0258	2	0.0
11	6	-5	97.47	1.0256	2	0.1
3	-9	0	97.50	1.0253	2	0.0
29	4	4	97.55	1.0249	2	0.0
26	-7	1	97.60	1.0245	2	0.5
35	5	-1	97.66	1.0241	2	0.0
6	1	-7	97.69	1.0238	2	0.1
16	-8	-2	97.72	1.0236	2	1.0
4	9	0	97.76	1.0233	2	0.0
38	-3	2	97.80	1.0230	2	0.1
28	2	5	97.82	1.0229	2	0.0
12	4	6	97.86	1.0225	2	0.0
31	-5	-3	97.92	1.0221	2	0.0
9	-8	-3	97.93	1.0220	2	0.0
13	7	-4	97.95	1.0218	2	0.0
36	-4	2	98.00	1.0215	2	0.2
12	7	4	98.05	1.0211	2	0.0
31	0	-5	98.08	1.0208	2	0.1
24	-7	2	98.10	1.0207	2	0.0
41	2	1	98.13	1.0205	2	0.0
32	-6	0	98.24	1.0196	2	0.3
12	-6	-5	98.26	1.0195	2	0.7
20	5	-5	98.32	1.0189	2	0.0
30	6	-2	98.35	1.0187	2	0.6
35	-5	1	98.37	1.0186	2	0.0
38	2	-3	98.39	1.0184	2	0.0
33	3	-4	98.46	1.0179	2	0.1
9	8	3	98.47	1.0178	2	0.0
1	9	-1	98.51	1.0175	2	0.0
22	-2	-6	98.53	1.0174	2	0.3
8	-1	-7	98.57	1.0171	2	0.0
22	6	-4	98.60	1.0168	2	0.0
2	9	-1	98.61	1.0168	2	0.0
26	-5	4	98.67	1.0163	2	0.2
42	1	1	98.75	1.0157	2	1.3
21	6	4	98.76	1.0156	2	0.0
13	-4	6	98.83	1.0151	2	0.0
19	5	5	98.86	1.0148	2	0.0
14	7	-4	98.90	1.0146	2	0.0
25	7	-2	98.90	1.0145	2	0.7
13	-7	4	99.00	1.0138	2	0.0
25	-4	-5	99.02	1.0136	2	0.0
39	3	-2	99.05	1.0134	2	0.0
4	9	1	99.10	1.0130	2	0.0
9	1	-7	99.12	1.0129	2	0.1
38	4	1	99.13	1.0128	2	0.0
2	5	-6	99.16	1.0126	2	0.0
15	-4	-6	99.18	1.0124	2	0.0
10	-8	3	99.19	1.0123	2	0.0
0	2	7	99.22	1.0122	2	0.0
1	-5	6	99.23	1.0120	2	0.0
3	5	-6	99.28	1.0117	2	0.0
35	-2	-4	99.30	1.0115	2	0.2
11	-8	-3	99.33	1.0113	2	0.0
24	-1	-6	99.35	1.0112	2	0.0
42	-2	0	99.43	1.0105	2	0.0
12	-6	5	99.47	1.0103	2	0.0
40	-2	2	99.49	1.0101	2	0.0
31	4	-4	99.51	1.0100	2	0.0
27	7	1	99.54	1.0097	2	0.0
21	2	6	99.56	1.0096	2	0.0
20	8	1	99.57	1.0096	2	0.0
20	-3	-6	99.62	1.0092	2	1.3
8	-1	7	99.70	1.0086	2	0.1
35	1	4	99.70	1.0085	2	0.0
6	9	-1	99.73	1.0083	2	0.2
30	4	4	99.74	1.0082	2	0.0
3	-2	7	99.76	1.0081	2	0.0
5	-2	-7	99.78	1.0080	2	0.0
6	9	1	99.85	1.0074	2	0.0
32	6	1	99.87	1.0073	2	0.0
15	7	-4	99.92	1.0070	2	0.0
4	5	6	99.96	1.0066	2	0.0
14	-7	4	100.03	1.0062	2	0.0
14	7	4	100.03	1.0062	2	0.0